#Acq. time (s)=	30
#Accumulations=	2
#Range (cm-¹)=	1200...2365
#Windows=	3
#Auto scanning=	Off
#Autofocus=	Off
#Macrospot=	Off
#AutoExposure=	Off
#Spike filter=	Multiple accum.
#Delay time (s)=	2
#Binning=	1
#Readout mode=	Signal
#DeNoise=	Off
#ICS correction=	On
#Dark correction=	Off
#Inst. Process=	Off
#Detector Gain=	Best Dynamic
#Detector ADC=	50 kHz HS
#Detector temperature (°C)=	-60.09
#Instrument=	LabRAM HR Evol
#Detector=	SIN-EM FIVIS
#Objective=	x100_VIS_LWD
#Grating=	1800 (450-850nm)
#ND Filter=	100%
#Laser=	532nm_Edge
#Hole=	100.021
#Temperature=	0
#Range=	Visible
#StageXY=	75x50mm Scan+
#StageZ=	Z motor
#X (µm)=	0
#Y (µm)=	0
#Z (µm)=	-16.5
#Full time(mm:ss)=	3:18
#Project=	21_11_26
#Sample=	BU02Aw
#Site=	
#Title=	BU02aW-A-FF1-FI04-S_1800 (450-850nm)_532nm_Edge_100%_x100_VIS_LWD_H100um_30sX2
#Remark=	
#Date=	26.11.2021 11:05
#Acquired=	26.11.2021 11:05:18
#Base:Fit=	16.12.2021 16:15:35
#Base:Fit=	16.12.2021 16:19:21
#Base:Sub=	16.12.2021 16:19:22
1202.72	0.408371
1203	3.81348
1203.28	2.83521
1203.56	-5.74562
1203.84	-1.41541
1204.11	-0.300011
1204.39	1.894
1204.67	3.04085
1204.95	4.19141
1205.23	4.24375
1205.5	-1.09052
1205.78	-1.05392
1206.06	1.12496
1206.34	5.44566
1206.61	4.39922
1206.89	2.28033
1207.17	0.162498
1207.45	0.192726
1207.73	2.37218
1208	5.6209
1208.28	-6.11302
1208.56	0.346954
1208.84	1.44693
1209.11	-2.80097
1209.39	0.438553
1209.67	-2.73054
1209.95	-6.96426
1210.23	5.90308
1210.5	-7.96292
1210.78	4.87579
1211.06	-3.65482
1211.34	2.77093
1211.61	1.71714
1211.89	-2.53249
1212.17	2.81155
1212.45	-1.44288
1212.72	-0.359604
1213	-5.67183
1213.28	-0.331085
1213.56	-2.44198
1213.83	2.90491
1214.11	-4.53139
1214.39	2.95284
1214.67	0.854088
1214.94	-0.182556
1215.22	-4.41547
1215.5	-0.134003
1215.78	-2.24192
1216.05	-0.0944519
1216.33	6.29697
1216.61	-0.0892563
1216.89	-4.34943
1217.16	2.02451
1217.44	-4.35214
1217.72	-3.2884
1218	-3.28824
1218.27	-3.28542
1218.55	5.20933
1218.83	-1.15761
1219.1	-4.33386
1219.38	0.981369
1219.66	2.04941
1219.94	2.05356
1220.21	2.05357
1220.49	6.30504
1220.77	-1.10893
1221.04	6.3213
1221.32	-0.0397644
1221.6	-2.16357
1221.88	-0.0468903
1222.15	-0.0585632
1222.43	-0.0772781
1222.71	2.01685
1222.98	5.16386
1223.26	-0.15403
1223.54	4.05019
1223.81	-0.202778
1224.09	-2.33575
1224.37	-5.52418
1224.65	0.798485
1224.92	6.06554
1225.2	2.88953
1225.48	-3.44615
1225.76	3.95035
1226.03	-6.60198
1226.31	1.85114
1226.59	2.90083
1226.86	2.89298
1227.14	-0.290028
1227.42	6.02762
1227.69	-1.39729
1227.97	2.75296
1228.25	-4.6656
1228.52	-3.65276
1228.8	1.54157
1229.08	-3.76958
1229.35	4.62429
1229.63	-7.85351
1229.91	-3.51953
1230.18	0.63308
1230.46	0.562775
1230.74	-2.62933
1231.01	6.84763
1231.29	-4.78435
1231.57	2.44283
1231.84	-0.708538
1232.12	-4.92445
1232.4	6.62041
1232.67	-2.85615
1232.95	-4.97138
1233.23	3.41702
1233.5	1.2963
1233.78	1.28111
1234.06	3.37185
1234.33	0.212021
1234.61	1.25469
1234.89	-0.852203
1235.16	2.29631
1235.44	2.28634
1235.71	1.22562
1235.99	-7.19304
1236.27	-6.15317
1236.54	1.18917
1236.82	-3.04092
1237.1	-0.96545
1237.37	-2.04756
1237.65	4.21696
1237.93	-2.12644
1238.2	3.08212
1238.48	1.98998
1238.76	-1.19957
1239.03	-0.187035
1239.31	-3.36285
1239.58	-3.39042
1239.86	0.777
1240.14	-7.63271
1240.41	-2.41341
1240.69	-7.67461
1240.97	2.78899
1241.24	-0.37262
1241.52	4.85094
1241.79	2.72754
1242.07	3.74245
1242.35	2.66571
1242.62	6.83748
1242.9	-4.70728
1243.18	-2.62394
1243.45	0.507614
1243.73	5.72631
1244	-8.9706
1244.28	3.59123
1244.56	-0.625008
1244.83	3.54162
1245.11	-1.72823
1245.39	5.57114
1245.66	2.38783
1245.94	5.48386
1246.21	5.43762
1246.49	2.2644
1246.76	-0.904022
1247.04	3.26027
1247.32	8.46941
1247.59	2.16032
1247.87	6.32233
1248.14	10.4773
1248.42	13.5641
1248.7	3.06651
1248.97	6.1773
1249.25	4.06641
1249.52	3.00224
1249.8	2.97411
1250.08	10.2695
1250.35	1.87959
1250.63	-1.29519
1250.9	-2.38071
1251.18	2.80737
1251.45	-0.364685
1251.73	2.73454
1252.01	4.78822
1252.28	3.70724
1252.56	4.71515
1252.83	3.63428
1253.11	3.59591
1253.39	2.51538
1253.66	11.8765
1253.94	3.50531
1254.21	2.44911
1254.49	6.61391
1254.76	1.38557
1255.04	4.50049
1255.31	11.7863
1255.59	2.37051
1255.87	12.7897
1256.14	11.7183
1256.42	4.38877
1256.69	4.37106
1256.97	7.49163
1257.24	6.42748
1257.52	7.44519
1257.79	5.32294
1258.07	12.6034
1258.35	11.5302
1258.62	15.6772
1258.9	25.0411
1259.17	24.9969
1259.45	27.0594
1259.72	14.5219
1260	19.7313
1260.27	15.5668
1260.55	13.4351
1260.82	19.6571
1261.1	16.4735
1261.37	28.9502
1261.65	28.9129
1261.92	32.0343
1262.2	35.2327
1262.48	34.2987
1262.75	42.7102
1263.02	57.1328
1263.3	66.3517
1263.58	82.9535
1263.85	87.2539
1264.13	98.841
1264.4	121.978
1264.68	125.19
1264.95	116.686
1265.23	104.079
1265.5	77.9295
1265.78	67.4464
1266.05	49.6394
1266.33	38.1254
1266.6	27.6639
1266.88	30.7924
1267.15	39.1535
1267.43	21.385
1267.7	20.3439
1267.98	19.3043
1268.25	17.2209
1268.53	15.146
1268.8	27.7248
1269.08	26.6776
1269.35	17.2458
1269.63	15.1428
1269.9	16.1677
1270.18	19.2744
1270.45	8.75862
1270.73	19.1948
1271	20.2036
1271.28	22.2646
1271.55	25.3812
1271.83	21.167
1272.1	20.1108
1272.38	25.348
1272.65	21.1704
1272.93	20.141
1273.2	18.0527
1273.47	14.916
1273.75	25.4044
1274.03	13.8807
1274.3	14.936
1274.57	18.0815
1274.85	18.0709
1275.12	21.1998
1275.4	19.0881
1275.67	18.0346
1275.95	16.9856
1276.22	19.0856
1276.5	22.242
1276.77	21.1952
1277.05	21.1994
1277.32	26.45
1277.6	29.6118
1277.87	24.3696
1278.14	27.5322
1278.42	24.3857
1278.69	29.6479
1278.97	29.6641
1279.24	33.8759
1279.52	42.2974
1279.79	33.8648
1280.07	40.1571
1280.34	53.8064
1280.61	52.7398
1280.89	60.1016
1281.16	66.4153
1281.44	85.3779
1281.71	107.518
1281.99	141.217
1282.26	182.255
1282.53	249.643
1282.81	336.002
1283.08	461.192
1283.36	648.204
1283.63	908.272
1283.91	1226.31
1284.18	1608.77
1284.45	1931.37
1284.73	2047.17
1285	1868.41
1285.28	1361.54
1285.55	927.972
1285.83	585.452
1286.1	371.728
1286.37	254.925
1286.65	159.087
1286.92	117.977
1287.2	106.388
1287.47	76.8937
1287.75	60.0256
1288.02	55.7889
1288.29	49.4575
1288.57	49.4525
1288.84	42.0855
1289.12	29.4605
1289.39	31.5773
1289.66	30.5394
1289.94	26.3429
1290.21	26.3601
1290.49	28.4811
1290.76	28.4788
1291.03	16.8804
1291.31	16.8742
1291.58	28.4572
1291.86	20.0294
1292.13	18.9722
1292.4	18.9725
1292.68	9.49845
1292.95	9.49393
1293.22	13.7006
1293.5	5.27974
1293.77	12.6788
1294.05	13.7669
1294.32	14.8571
1294.59	15.9226
1294.87	18.0336
1295.14	16.9749
1295.42	11.719
1295.69	17.0304
1295.96	9.68951
1296.24	12.917
1296.51	7.66908
1296.79	10.8512
1297.06	-0.770363
1297.33	6.62445
1297.61	6.61555
1297.88	7.66114
1298.15	10.8173
1298.43	11.8573
1298.7	12.9277
1298.97	11.8704
1299.25	1.30388
1299.52	7.63447
1299.79	5.51707
1300.07	9.74458
1300.34	5.54153
1300.62	5.55561
1300.89	7.6762
1301.16	9.79141
1301.44	4.51675
1301.71	9.80714
1301.98	-2.84455
1302.25	8.79176
1302.53	7.75023
1302.8	3.53551
1303.08	5.65587
1303.35	1.43495
1303.62	5.66103
1303.9	2.48936
1304.17	3.55232
1304.44	7.78753
1304.72	9.90963
1304.99	-2.75241
1305.26	4.64086
1305.54	3.58322
1305.81	4.63348
1306.08	5.68365
1306.35	3.56737
1306.63	7.78381
1306.9	-0.647911
1307.18	2.5278
1307.45	3.60097
1307.72	5.72504
1308	4.68208
1308.27	8.91337
1308.54	-1.61705
1308.81	-2.66233
1309.09	5.79302
1309.36	3.70856
1309.63	-1.54282
1309.91	0.591484
1310.18	-0.442917
1310.45	2.73603
1310.73	2.74648
1311	0.651253
1311.27	2.78017
1311.55	1.74424
1311.82	7.04034
1312.09	-0.326164
1312.37	-4.52108
1312.64	1.83967
1312.91	2.91702
1313.18	2.93097
1313.46	-1.28588
1313.73	-1.27087
1314	10.3524
1314.28	2.97582
1314.55	2.99366
1314.82	7.23843
1315.09	1.98572
1315.37	6.23623
1315.64	6.26389
1315.91	-2.15625
1316.18	-4.24106
1316.46	-5.28052
1316.73	-4.20857
1317	-5.24751
1317.28	0.0511017
1317.55	1.12744
1317.82	7.4949
1318.09	-4.09673
1318.37	0.153809
1318.64	0.177551
1318.91	0.20034
1319.18	2.33498
1319.46	4.46767
1319.73	1.31744
1320	3.44974
1320.28	-2.86178
1320.55	-2.83856
1320.82	2.46257
1321.09	-3.86208
1321.37	-2.79691
1321.64	-1.73599
1321.91	8.82088
1322.18	3.55505
1322.46	2.50419
1322.73	0.409286
1323	3.58803
1323.27	-1.67018
1323.55	-0.603851
1323.82	1.53725
1324.09	0.510696
1324.36	0.537079
1324.64	1.61475
1324.91	-2.57652
1325.18	3.77383
1325.45	-6.74063
1325.73	0.649719
1326	-2.51535
1326.27	-0.419159
1326.54	-1.49145
1326.81	1.67271
1327.09	-0.409592
1327.36	-1.41306
1327.63	0.762833
1327.9	-0.239433
1328.18	6.13412
1328.45	8.29821
1328.72	-3.24592
1328.99	1.02212
1329.27	-5.27374
1329.54	1.07691
1329.81	2.16768
1330.08	0.0835266
1330.35	2.21719
1330.63	4.34713
1330.9	-5.12784
1331.17	1.21342
1331.44	8.60148
1331.71	3.33458
1331.99	0.174927
1332.26	-4.0289
1332.53	5.45709
1332.8	3.36167
1333.07	-5.04628
1333.35	4.42661
1333.62	-5.02557
1333.89	-3.96198
1334.16	2.35491
1334.43	6.56854
1334.71	3.43146
1334.98	0.297279
1335.25	4.51339
1335.52	7.6798
1335.79	-0.694603
1336.07	-1.72255
1336.34	0.397011
1336.61	5.6628
1336.88	3.58908
1337.15	2.56568
1337.43	-4.74542
1337.7	6.81233
1337.97	3.69362
1338.24	5.80592
1338.51	2.68058
1338.78	3.75185
1339.06	-3.55623
1339.33	6.94223
1339.6	1.73879
1339.87	-0.31871
1340.14	-0.280785
1340.42	2.89693
1340.69	1.88689
1340.96	5.0657
1341.23	6.14645
1341.5	3.0367
1341.77	6.2085
1342.04	1.00081
1342.32	7.30697
1342.59	0.000869751
1342.86	2.11227
1343.13	1.08466
1343.4	2.15747
1343.67	1.14262
1343.95	8.49748
1344.22	7.48729
1344.49	3.34159
1344.76	6.51569
1345.03	6.54589
1345.3	3.43436
1345.58	7.6378
1345.85	4.51717
1346.12	3.4923
1346.39	2.46231
1346.66	2.46677
1346.93	1.4395
1347.2	4.58733
1347.47	7.7326
1347.75	4.62265
1348.02	2.56309
1348.29	-2.61908
1348.56	1.58265
1348.83	-3.59477
1349.1	4.77024
1349.37	1.67073
1349.65	0.6549
1349.92	9.01319
1350.19	-2.4148
1350.46	4.90065
1350.73	9.09052
1351	2.86817
1351.27	6.01164
1351.54	3.95917
1351.81	2.94133
1352.09	6.09518
1352.36	-2.18521
1352.63	4.10106
1352.9	6.23543
1353.17	8.37712
1353.44	10.5095
1353.71	4.36207
1353.98	2.37926
1354.25	5.48294
1354.53	7.50134
1354.8	8.50889
1355.07	9.5961
1355.34	1.32945
1355.61	6.54145
1355.88	6.56943
1356.15	-2.71701
1356.42	8.7575
1356.69	10.8606
1356.96	1.54606
1357.24	4.69728
1357.51	2.65467
1357.78	14.1094
1358.05	7.90939
1358.32	11.0527
1358.59	9.00506
1358.86	10.0721
1359.13	11.1363
1359.4	10.1265
1359.67	9.12062
1359.94	11.2272
1360.22	8.13986
1360.49	7.12455
1360.76	12.3278
1361.03	15.4636
1361.3	15.4994
1361.57	6.21761
1361.84	13.5077
1362.11	7.33101
1362.38	9.43623
1362.65	15.6837
1362.92	9.50594
1363.19	12.6519
1363.46	10.628
1363.73	10.6828
1364	21.0918
1364.28	17.001
1364.55	20.1503
1364.82	18.1159
1365.09	22.293
1365.36	27.4984
1365.63	21.3099
1365.9	26.5084
1366.17	23.4271
1366.44	19.3129
1366.71	22.4398
1366.98	21.4247
1367.25	17.3047
1367.52	14.2351
1367.79	15.3043
1368.06	20.5252
1368.33	13.339
1368.6	20.6227
1368.87	22.7385
1369.15	36.2266
1369.41	47.6508
1369.68	73.5516
1369.95	105.629
1370.23	99.4513
1370.5	72.6018
1370.77	38.5095
1371.04	30.2743
1371.31	31.3343
1371.58	36.5164
1371.85	33.4305
1372.12	30.3412
1372.39	28.2872
1372.66	31.3941
1372.93	26.2587
1373.2	27.3186
1373.47	27.3508
1373.74	27.3834
1374.01	31.54
1374.28	32.6065
1374.55	35.7347
1374.82	38.863
1375.09	33.7483
1375.36	35.8405
1375.63	30.7375
1375.9	42.1249
1376.17	30.8342
1376.44	49.4277
1376.71	46.354
1376.98	41.2235
1377.25	46.381
1377.52	46.3814
1377.79	45.4094
1378.06	46.5093
1378.33	51.7438
1378.6	54.9331
1378.87	60.1934
1379.14	62.3193
1379.41	66.4828
1379.68	70.6338
1379.95	71.6901
1380.22	75.8289
1380.49	72.7253
1380.76	69.5762
1381.03	77.7915
1381.3	83.9551
1381.57	84.0223
1381.84	92.2558
1382.11	84.0076
1382.38	83.9811
1382.65	96.2883
1382.92	99.3556
1383.19	101.392
1383.46	108.572
1383.73	110.618
1384	126.013
1384.27	120.905
1384.54	132.232
1384.81	143.571
1385.08	165.188
1385.34	185.809
1385.61	206.472
1385.88	273.307
1386.15	343.24
1386.42	455.263
1386.69	632.066
1386.96	956.757
1387.23	1474.47
1387.5	2364.15
1387.77	3553.94
1388.04	4453.93
1388.31	4032.34
1388.58	2829.75
1388.85	1686.47
1389.12	972.439
1389.39	582.98
1389.66	367.45
1389.93	272.041
1390.2	204.221
1390.46	153.799
1390.73	132.233
1391	119.965
1391.27	104.563
1391.54	88.1943
1391.81	69.7785
1392.08	70.8176
1392.35	71.852
1392.62	59.578
1392.89	61.6493
1393.16	49.3913
1393.43	47.3748
1393.7	56.6191
1393.97	50.5112
1394.23	50.5452
1394.5	38.3012
1394.77	37.315
1395.04	39.4002
1395.31	35.3601
1395.58	37.465
1395.85	40.5893
1396.12	30.4002
1396.39	43.7471
1396.66	33.5458
1396.93	26.4138
1397.2	24.3992
1397.46	30.565
1397.73	27.5227
1398	29.6028
1398.27	33.7352
1398.54	28.6691
1398.81	32.8132
1399.08	25.6998
1399.35	29.8387
1399.62	29.8952
1399.89	25.8525
1400.16	31.0199
1400.42	29.014
1400.69	25.9964
1400.96	38.3457
1401.23	28.158
1401.5	24.1003
1401.77	29.2722
1402.04	27.2646
1402.31	27.334
1402.58	22.2966
1402.84	34.6931
1403.11	24.5126
1403.38	26.6321
1403.65	31.8187
1403.92	26.7276
1404.19	25.7254
1404.46	23.6697
1404.73	35.0085
1404.99	29.9117
1405.26	34.0459
1405.53	25.866
1405.8	32.0445
1406.07	35.1459
1406.34	33.1219
1406.61	48.5285
1406.87	49.5856
1407.14	59.8808
1407.41	61.9797
1407.68	63.0549
1407.95	77.4554
1408.22	93.9078
1408.49	135.996
1408.76	149.378
1409.02	168.917
1409.29	205.899
1409.56	236.73
1409.83	214.227
1410.1	192.74
1410.37	138.413
1410.63	108.672
1410.9	73.8053
1411.17	61.5052
1411.44	51.2699
1411.71	43.0943
1411.98	34.9247
1412.25	37.0098
1412.51	29.8891
1412.78	20.7277
1413.05	23.8894
1413.32	26.0739
1413.59	17.9418
1413.86	23.0589
1414.12	22.9975
1414.39	22.0272
1414.66	11.8538
1414.93	28.3491
1415.2	12.9828
1415.47	11.9966
1415.73	15.1151
1416	15.155
1416.27	10.0646
1416.54	16.2694
1416.81	10.1521
1417.07	13.2775
1417.34	6.1324
1417.61	14.3957
1417.88	14.4404
1418.15	11.3989
1418.42	11.4375
1418.68	11.4772
1418.95	10.4898
1419.22	8.47216
1419.49	11.5935
1419.76	10.5958
1420.02	9.59356
1420.29	6.53606
1420.56	8.61592
1420.83	11.7204
1421.1	9.68992
1421.36	13.8205
1421.63	9.74556
1421.9	8.75875
1422.17	9.83754
1422.44	9.89439
1422.7	10.9784
1422.97	10.0201
1423.24	9.07981
1423.51	9.16927
1423.77	10.0883
1424.04	15.1208
1424.31	18.2505
1424.58	8.99809
1424.85	14.1562
1425.11	9.08593
1425.38	7.11195
1425.65	12.2826
1425.92	15.3852
1426.19	16.4687
1426.45	11.3694
1426.72	13.444
1426.99	14.4871
1427.26	8.35272
1427.52	10.4191
1427.79	11.4527
1428.06	6.34563
1428.33	5.34647
1428.59	12.5436
1428.86	11.5543
1429.13	8.51992
1429.4	6.51026
1429.67	9.62298
1429.93	8.64131
1430.2	6.63811
1430.47	13.8606
1430.74	9.80711
1431	7.80792
1431.27	6.84061
1431.54	9.97162
1431.81	2.8303
1432.07	6.96846
1432.34	3.9119
1432.61	3.93129
1432.87	8.05846
1433.14	6.02194
1433.41	0.907104
1433.68	1.94187
1433.95	1.95313
1434.21	8.11639
1434.48	-0.0497169
1434.75	4.10312
1435.01	3.12125
1435.28	1.1055
1435.55	6.26063
1435.82	5.26569
1436.08	2.22025
1436.35	2.24782
1436.62	0.225842
1436.89	8.44773
1437.15	0.277649
1437.42	6.44947
1437.69	7.50271
1437.95	1.38163
1438.22	3.45738
1438.49	7.58701
1438.76	-2.61757
1439.02	5.61207
1439.29	5.64375
1439.56	5.67635
1439.82	-3.50775
1440.09	7.80662
1440.36	0.675526
1440.63	4.81247
1440.89	6.89597
1441.16	6.92589
1441.43	-0.220589
1441.69	-1.22102
1441.96	3.92618
1442.23	2.92491
1442.49	3.98954
1442.76	4.0195
1443.03	4.05846
1443.3	3.05432
1443.56	4.09893
1443.83	-2.03209
1444.1	5.16686
1444.36	6.21768
1444.63	2.14829
1444.9	1.16511
1445.16	3.25624
1445.43	-0.803852
1445.7	3.32334
1445.97	4.37137
1446.23	8.49702
1446.5	4.41638
1446.77	7.51606
1447.03	3.43606
1447.3	5.50951
1447.57	4.50523
1447.83	2.47429
1448.1	3.52052
1448.37	-5.68035
1448.63	-1.54519
1448.9	3.61934
1449.17	3.64838
1449.43	0.596382
1449.7	0.617928
1449.97	2.6879
1450.23	4.75544
1450.5	2.72171
1450.77	1.71741
1451.03	0.713684
1451.3	1.75959
1451.57	-0.269531
1451.83	2.82448
1452.1	4.89348
1452.37	0.815693
1452.63	-4.28459
1452.9	0.862942
1453.17	1.9141
1453.43	3.99352
1453.7	-0.0767708
1453.97	4.04677
1454.23	8.16592
1454.5	2.03822
1454.77	4.11131
1455.03	1.06068
1455.3	-4.04093
1455.56	3.15175
1455.83	2.15127
1456.1	4.23283
1456.36	1.18586
1456.63	2.23349
1456.9	-3.89729
1457.16	-0.80817
1457.43	1.25579
1457.7	2.29902
1457.96	-2.80405
1458.23	4.38679
1458.49	-3.78593
1458.76	-1.71415
1459.03	0.359211
1459.29	0.383339
1459.56	-0.617985
1459.82	-1.62009
1460.09	-7.74786
1460.36	2.51576
1460.62	-3.61327
1460.89	-1.5471
1461.16	0.517315
1461.42	-4.58873
1461.69	-3.54962
1461.95	5.67925
1462.22	2.61978
1462.49	1.60749
1462.75	-3.49866
1463.02	-0.418705
1463.28	-0.409492
1463.55	-1.42344
1463.82	1.65388
1464.08	-5.48475
1464.35	-2.38391
1464.61	-2.34356
1464.88	-2.308
1465.15	5.92477
1465.41	-1.25957
1465.68	3.78274
1465.94	-0.322361
1466.21	-2.34908
1466.48	-4.35803
1466.74	-0.260605
1467.01	3.81837
1467.27	4.85014
1467.54	0.792587
1467.8	8.96922
1468.07	2.8628
1468.34	2.87865
1468.6	-1.18453
1468.87	3.93243
1469.13	-0.132717
1469.4	-3.17943
1469.67	2.95127
1469.93	-2.13876
1470.2	-5.19009
1470.46	0.93404
1470.73	-4.15052
1470.99	-5.15747
1471.26	3.00693
1471.53	-2.07661
1471.79	-1.05017
1472.06	-2.05827
1472.32	-0.00845337
1472.59	4.07914
1472.85	3.07577
1473.12	3.09043
1473.39	-0.969803
1473.65	3.11139
1473.92	6.17331
1474.18	0.0763626
1474.45	-1.94667
1474.71	-2.94893
1474.98	1.14143
1475.24	2.17776
1475.51	2.19364
1475.78	0.171646
1476.04	-3.88844
1476.31	-2.86168
1476.57	2.23627
1476.84	-0.805466
1477.1	-0.798157
1477.37	-0.791157
1477.63	-0.78056
1477.9	-1.78484
1478.16	0.262119
1478.43	-2.77964
1478.69	0.275738
1478.96	2.31579
1479.22	8.42044
1479.49	1.31165
1479.76	-0.715702
1480.02	1.31948
1480.29	0.307281
1480.55	-3.75695
1480.82	-0.711308
1481.08	4.36641
1481.35	0.316288
1481.61	0.321266
1481.88	-1.69071
1482.14	2.38807
1482.41	-4.69471
1482.67	1.41713
1482.94	-4.65456
1483.2	3.47983
1483.47	-2.59418
1483.73	1.48276
1484	4.54139
1484.26	-2.5565
1484.53	1.49788
1484.79	4.52652
1485.06	2.45724
1485.32	4.42725
1485.59	1.37952
1485.85	-1.67819
1486.12	0.462505
1486.38	5.55397
1486.65	-3.53939
1486.91	1.49014
1487.18	2.53866
1487.44	3.57032
1487.71	-4.53841
1487.97	0.526966
1488.24	-4.53264
1488.5	-1.4912
1488.77	-3.51533
1489.03	-2.50323
1489.3	0.534626
1489.56	1.55141
1489.83	3.58083
1490.09	-0.459312
1490.36	-4.49645
1490.62	-1.45236
1490.89	0.574902
1491.15	-1.44747
1491.42	0.575531
1491.68	2.60258
1491.95	-2.44528
1492.21	5.65179
1492.48	-1.41412
1492.74	-4.4396
1493	-0.389046
1493.27	-2.40357
1493.53	-5.42767
1493.8	-1.37838
1494.06	-1.37147
1494.33	1.67015
1494.59	-0.340069
1494.86	-4.37186
1495.12	-2.34337
1495.39	1.70101
1495.65	-3.35736
1495.92	-5.38497
1496.18	0.670444
1496.45	0.669769
1496.71	0.671124
1496.97	-2.35522
1497.24	1.68357
1497.5	1.69066
1497.77	-1.33016
1498.03	-2.33459
1498.3	-3.33759
1498.56	-3.33005
1498.82	-3.32203
1499.09	-0.285797
1499.35	-7.34205
1499.62	5.78917
1499.88	-1.26578
1500.15	-4.28393
1500.41	-3.26624
1500.68	-1.24087
1500.94	5.83092
1501.2	0.788059
1501.47	2.80819
1501.73	-3.25032
1502	-2.23767
1502.26	-0.214649
1502.52	-6.26506
1502.79	5.8451
1503.05	-2.23034
1503.32	-3.24179
1503.58	2.80978
1503.85	5.83153
1504.11	-2.22955
1504.37	1.81362
1504.64	-0.195747
1504.9	-0.19014
1505.17	1.82982
1505.43	0.821735
1505.7	3.84418
1505.96	-3.21988
1506.22	-1.21501
1506.49	-2.22068
1506.75	-0.202396
1507.02	1.81921
1507.28	0.823036
1507.54	1.83706
1507.81	2.85137
1508.07	-1.17542
1508.34	-5.20465
1508.6	-3.18744
1508.86	1.85555
1509.13	-6.19968
1509.39	-1.15679
1509.66	1.86946
1509.92	-1.14972
1510.18	2.88998
1510.45	4.91254
1510.71	-0.131493
1510.98	-3.15896
1511.24	0.863579
1511.5	-3.17357
1511.77	0.838879
1512.03	0.817928
1512.29	2.80799
1512.56	-0.227573
1512.82	7.79315
1513.08	2.76079
1513.35	-0.25951
1513.61	1.74253
1513.88	2.74538
1514.14	1.75545
1514.4	3.78537
1514.67	-2.23435
1514.93	-2.23666
1515.2	-3.24814
1515.46	-2.253
1515.72	-0.254169
1515.99	6.75823
1516.25	7.74806
1516.51	2.72469
1516.78	0.716579
1517.04	-2.29312
1517.3	-4.2992
1517.57	-3.29568
1517.83	-2.29036
1518.09	-2.28534
1518.36	3.74174
1518.62	-4.27744
1518.88	-2.26672
1519.15	-2.26251
1519.41	3.76193
1519.67	-5.26192
1519.94	2.76798
1520.2	1.76503
1520.47	-0.244278
1520.73	2.76322
1520.99	-2.24863
1521.26	1.76999
1521.52	-0.231358
1521.78	3.78498
1522.05	2.78065
1522.31	0.770741
1522.57	-0.236656
1522.84	2.76796
1523.1	4.76968
1523.36	-5.26581
1523.62	-3.27218
1523.89	0.720142
1524.15	4.71584
1524.41	1.70094
1524.68	2.69464
1524.94	-1.31774
1525.2	-1.3123
1525.47	-1.30988
1525.73	-4.31249
1525.99	5.71033
1526.26	-3.29653
1526.52	-2.28307
1526.78	1.73517
1527.05	0.736584
1527.31	0.735493
1527.57	-0.273373
1527.84	0.725773
1528.1	-3.28665
1528.36	-0.284302
1528.63	1.71383
1528.89	-2.29867
1529.15	-1.30124
1529.41	-2.30552
1529.68	0.698158
1529.94	2.69777
1530.2	-1.31615
1530.47	-0.317314
1530.73	2.69061
1530.99	-1.30692
1531.25	-0.296757
1531.52	-0.290596
1531.78	-6.30268
1532.04	3.71373
1532.31	1.71014
1532.57	-0.300835
1532.83	-4.30448
1533.09	-3.29225
1533.36	4.74281
1533.62	-0.257313
1533.88	0.751011
1534.15	1.75673
1534.41	2.75822
1534.67	1.75118
1534.94	1.74619
1535.2	1.73985
1535.46	-0.271431
1535.72	-2.28673
1535.99	1.69886
1536.25	-1.3225
1536.51	-5.34052
1536.77	-5.35596
1537.04	-1.36885
1537.3	1.61679
1537.56	3.60946
1537.82	3.5964
1538.09	-4.40683
1538.35	-0.416851
1538.61	3.56612
1538.87	-3.43816
1539.14	2.55308
1539.4	-0.435173
1539.66	3.59012
1539.92	-5.38602
1540.19	5.6499
1540.45	1.66132
1540.71	2.68226
1540.97	-9.33956
1541.24	0.69083
1541.5	0.66946
1541.76	1.66737
1542.02	1.65221
1542.29	2.64007
1542.55	-4.38578
1542.81	-2.39568
1543.07	2.59767
1543.34	-3.4212
1543.6	1.56943
1543.86	0.55122
1544.12	2.53316
1544.39	0.532597
1544.65	1.53294
1544.91	2.54052
1545.17	-5.45279
1545.43	-7.44838
1545.7	4.57935
1545.96	5.58898
1546.22	-1.41841
1546.48	-2.41801
1546.74	-7.4317
1547.01	-1.42241
1547.27	2.5871
1547.53	-7.42952
1547.79	3.59431
1548.06	4.5825
1548.32	0.548161
1548.58	-0.45623
1548.84	2.54732
1549.1	0.555138
1549.37	1.51029
1549.63	2.45829
1549.89	-3.55254
1550.15	-4.53221
1550.42	3.51641
1550.68	1.58229
1550.94	-0.376461
1551.2	0.669086
1551.46	-0.369297
1551.73	1.64013
1551.99	0.623459
1552.25	-2.40509
1552.51	2.63113
1552.77	8.6743
1553.03	2.63803
1553.3	0.612709
1553.56	-1.431
1553.82	-5.45409
1554.08	4.56987
1554.34	-3.46671
1554.61	3.53589
1554.87	1.51141
1555.13	5.49887
1555.39	4.48706
1555.65	3.47852
1555.91	3.47469
1556.18	2.47247
1556.44	-1.53774
1556.7	3.46014
1556.96	2.45548
1557.22	-1.55186
1557.48	2.4542
1557.75	2.4514
1558.01	3.44683
1558.27	2.4326
1558.53	-1.59126
1558.79	1.39699
1559.06	1.37731
1559.32	-0.641544
1559.58	4.34316
1559.84	2.32874
1560.1	5.31565
1560.36	-3.69153
1560.63	-2.70025
1560.89	-1.7081
1561.15	-2.71388
1561.41	1.27915
1561.67	-0.720158
1561.93	3.28257
1562.19	-4.70658
1562.46	-1.69774
1562.72	-2.70133
1562.98	3.29333
1563.24	4.28549
1563.5	1.28382
1563.76	-0.724613
1564.02	-5.73081
1564.29	3.28181
1564.55	2.2963
1564.81	2.29836
1565.07	-3.71313
1565.33	0.259796
1565.59	1.17338
1565.85	2.05164
1566.11	2.98198
1566.38	2.1803
1566.64	-5.76606
1566.9	1.20607
1567.16	2.1699
1567.42	-3.79295
1567.68	-1.75844
1567.94	0.228024
1568.2	-3.80677
1568.47	-2.8059
1568.73	0.19582
1568.99	1.19506
1569.25	2.18645
1569.51	3.16427
1569.77	6.14758
1570.03	0.148212
1570.29	-0.851486
1570.55	-0.854446
1570.82	5.1387
1571.08	8.13187
1571.34	1.13
1571.6	-5.87311
1571.86	4.10769
1572.12	4.0948
1572.38	5.08811
1572.64	-1.91378
1572.9	1.06941
1573.17	0.0600967
1573.43	-2.94531
1573.69	7.02497
1573.95	2.02351
1574.21	-0.973488
1574.47	-2.96573
1574.73	3.03077
1574.99	3.03852
1575.25	1.04914
1575.51	-0.941826
1575.78	6.0578
1576.04	0.0600357
1576.3	3.05071
1576.56	3.04586
1576.82	0.0387993
1577.08	4.01588
1577.34	1.9957
1577.6	0.976322
1577.86	-4.03285
1578.12	-0.0601997
1578.38	5.90528
1578.64	2.90076
1578.9	-3.08768
1579.17	3.88648
1579.43	-0.105488
1579.69	2.88185
1579.95	4.87477
1580.21	2.88405
1580.47	-1.10504
1580.73	3.87809
1580.99	-4.10524
1581.25	-3.11683
1581.51	2.85397
1581.77	2.84373
1582.03	-0.159664
1582.29	-1.16963
1582.55	-0.180431
1582.81	-0.187416
1583.07	-0.194763
1583.33	3.78321
1583.59	0.789783
1583.85	3.77296
1584.11	-0.219501
1584.38	2.7645
1584.64	-3.21106
1584.9	2.76464
1585.16	-2.21765
1585.42	2.75884
1585.68	3.74855
1585.94	-1.23651
1586.2	0.747437
1586.46	2.72433
1586.72	5.6951
1586.98	2.69638
1587.24	1.69117
1587.5	4.66766
1587.76	1.67486
1588.02	9.62833
1588.28	4.6506
1588.54	1.66623
1588.8	0.673103
1589.06	5.65283
1589.32	0.67886
1589.58	7.64997
1589.84	3.66918
1590.1	2.67192
1590.36	3.66404
1590.62	-2.30957
1590.88	2.67136
1591.14	-1.31107
1591.4	-6.2951
1591.66	1.66837
1591.92	2.65769
1592.18	1.65368
1592.44	3.63074
1592.7	-5.34484
1592.96	2.60195
1593.22	-1.38791
1593.48	5.55357
1593.74	0.559658
1594	0.537148
1594.26	-0.471367
1594.52	3.49233
1594.78	4.48252
1595.04	2.49878
1595.3	1.51203
1595.56	-0.471935
1595.82	3.49987
1596.08	1.48782
1596.34	4.46352
1596.6	0.487644
1596.86	5.45128
1597.12	0.484028
1597.38	1.47778
1597.64	6.44624
1597.9	-2.49356
1598.16	2.46995
1598.42	4.4493
1598.68	9.40351
1598.94	0.449291
1599.2	5.39868
1599.46	3.40132
1599.72	3.39023
1599.98	1.39482
1600.24	12.2962
1600.5	0.381836
1600.76	3.3452
1601.02	3.33045
1601.28	2.32142
1601.54	6.26595
1601.8	10.2083
1602.06	1.27883
1602.32	3.24644
1602.58	6.20386
1602.84	3.22139
1603.1	8.15379
1603.36	2.2046
1603.62	-2.75146
1603.88	0.207211
1604.14	7.12227
1604.4	4.15264
1604.66	4.15129
1604.92	5.13936
1605.17	5.13778
1605.43	2.17042
1605.69	-0.796345
1605.95	-1.78358
1606.21	6.13176
1606.47	3.16918
1606.73	3.17365
1606.99	4.16628
1607.25	3.17503
1607.51	9.04401
1607.77	5.07976
1608.03	4.99818
1608.29	0.260273
1608.55	5.05618
1608.81	3.86926
1609.07	7.78915
1609.32	0.621704
1609.58	6.65884
1609.84	-0.704067
1610.1	4.53277
1610.36	2.38939
1610.62	2.33961
1610.88	5.01661
1611.14	0.614925
1611.4	9.39644
1611.66	5.69285
1611.92	7.41142
1612.18	3.48492
1612.44	4.93533
1612.69	2.82257
1612.95	5.53841
1613.21	1.84098
1613.47	4.39872
1613.73	3.94638
1613.99	4.66468
1614.25	4.81226
1614.51	2.84106
1614.77	6.4589
1615.03	0.768204
1615.29	4.80931
1615.54	1.56807
1615.8	4.48097
1616.06	7.1803
1616.32	7.2804
1616.58	2.40234
1616.84	2.14872
1617.1	8.1815
1617.36	2.75934
1617.62	6.18141
1617.88	4.96372
1618.13	4.83451
1618.39	2.96928
1618.65	6.4556
1618.91	6.55722
1619.17	4.71811
1619.43	4.696
1619.69	4.40208
1619.95	2.01708
1620.2	6.02446
1620.46	2.71869
1620.72	4.35154
1620.98	3.57907
1621.24	2.91008
1621.5	2.19819
1621.76	3.38852
1622.02	2.09813
1622.27	4.6402
1622.53	8.14376
1622.79	6.70673
1623.05	5.95239
1623.31	4.73603
1623.57	5.7696
1623.83	3.56831
1624.09	6.69825
1624.34	5.25955
1624.6	6.10577
1624.86	7.96062
1625.12	8.89248
1625.38	5.10939
1625.64	2.97668
1625.9	5.24055
1626.15	7.31466
1626.41	6.52322
1626.67	6.35225
1626.93	4.30569
1627.19	6.28008
1627.45	7.89072
1627.7	3.96462
1627.96	2.20995
1628.22	6.7954
1628.48	6.02098
1628.74	1.99976
1629	5.07634
1629.26	6.78256
1629.51	9.44434
1629.77	7.72001
1630.03	6.59254
1630.29	7.1728
1630.55	7.34316
1630.81	6.45073
1631.06	4.77514
1631.32	6.24372
1631.53	6.29607
1631.79	2.3644
1632.05	7.3012
1632.31	8.29705
1632.57	5.33889
1632.84	7.3259
1633.1	5.38166
1633.36	5.3643
1633.62	3.36815
1633.88	10.2609
1634.14	3.3721
1634.4	7.32377
1634.66	4.37098
1634.93	3.38802
1635.19	5.36012
1635.45	6.34525
1635.71	12.2571
1635.97	2.39877
1636.23	8.30788
1636.49	6.33223
1636.75	6.32735
1637.02	6.32191
1637.28	2.37567
1637.54	-0.585548
1637.8	10.2429
1638.06	7.28901
1638.32	4.33252
1638.58	2.36043
1638.84	7.28035
1639.1	0.392536
1639.37	6.30084
1639.63	9.25543
1639.89	3.35113
1640.15	4.3368
1640.41	3.35285
1640.67	5.32528
1640.93	12.229
1641.19	8.30063
1641.46	7.32044
1641.72	8.30373
1641.98	2.393
1642.24	6.3299
1642.5	5.34519
1642.76	8.29866
1643.02	3.37709
1643.28	10.2682
1643.54	6.33234
1643.8	4.36509
1644.06	4.36365
1644.33	7.31313
1644.59	2.38785
1644.85	7.30328
1645.11	3.3693
1645.37	5.34375
1645.63	6.33755
1645.89	6.34456
1646.15	7.33239
1646.41	2.41011
1646.67	6.34292
1646.93	4.37294
1647.19	2.40535
1647.46	8.30529
1647.72	5.352
1647.98	4.36716
1648.24	10.2699
1648.5	3.39126
1648.76	5.37055
1649.02	4.40016
1649.28	5.4133
1649.54	8.38058
1649.8	9.3626
1650.06	3.45406
1650.32	8.37893
1650.58	4.4603
1650.85	0.53677
1651.11	3.50428
1651.37	11.3996
1651.63	6.48396
1651.89	6.49078
1652.15	6.49494
1652.41	7.48444
1652.67	6.50512
1652.93	5.51846
1653.19	5.51623
1653.45	2.56178
1653.71	5.5218
1653.97	2.57245
1654.23	5.5377
1654.49	-2.33847
1654.75	3.58065
1655.01	6.54512
1655.27	9.51331
1655.53	6.57108
1655.8	2.64597
1656.06	6.61417
1656.32	7.61814
1656.57	7.6311
1656.84	5.66632
1657.1	9.62185
1657.36	9.62495
1657.62	6.66371
1657.88	5.67573
1658.14	11.5982
1658.4	1.73085
1658.66	6.6639
1658.92	1.72861
1659.18	9.61773
1659.44	5.66935
1659.7	5.66671
1659.96	5.664
1660.22	-2.22816
1660.48	4.68133
1660.74	-5.16677
1661	9.63656
1661.26	4.72012
1661.52	7.69439
1661.78	5.73727
1662.04	4.76013
1662.3	6.74312
1662.56	9.65844
1662.82	6.80531
1663.08	9.83235
1663.34	4.86528
1663.6	5.85326
1663.86	5.84566
1664.12	10.6747
1664.38	11.7271
1664.64	11.7469
1664.9	5.83358
1665.16	3.88937
1665.42	4.8932
1665.68	8.79226
1665.94	7.76111
1666.2	8.89341
1666.46	5.94454
1666.72	2.97877
1666.98	-1.03273
1667.24	4.74029
1667.5	4.89508
1667.76	2.91617
1668.02	3.90101
1668.28	0.941845
1668.54	3.89985
1668.8	8.84011
1669.06	1.96174
1669.32	1.00738
1669.58	2.99419
1669.84	2.01384
1670.1	1.03417
1670.36	3.0111
1670.62	2.02984
1670.88	4.0374
1671.14	5.04904
1671.4	5.05043
1671.66	3.07626
1671.92	2.09237
1672.18	4.07784
1672.44	-1.84206
1672.69	2.12013
1672.95	8.0577
1673.21	2.13313
1673.47	-0.824371
1673.73	5.11593
1673.99	2.16026
1674.25	4.1497
1674.51	2.18555
1674.77	3.18743
1675.03	2.21154
1675.29	6.18507
1675.55	0.262917
1675.81	6.21172
1676.07	3.25066
1676.33	9.19476
1676.59	8.21421
1676.85	-0.683216
1677.11	2.29449
1677.37	8.23945
1677.63	6.26435
1677.89	9.23577
1678.14	7.25647
1678.4	-0.660477
1678.66	4.28247
1678.92	6.25865
1679.18	0.326546
1679.44	5.27155
1679.7	3.29774
1679.96	4.28875
1680.22	6.26792
1680.48	1.33032
1680.74	2.32132
1681	3.31224
1681.26	8.25552
1681.52	2.33306
1681.78	3.32786
1682.03	-0.616432
1682.29	2.35504
1682.55	0.387451
1682.81	5.33603
1683.07	5.34182
1683.33	0.408897
1683.59	3.37989
1683.85	2.39993
1684.11	2.40661
1684.37	0.436035
1684.63	6.36293
1684.89	7.35423
1685.14	5.38464
1685.4	-3.49616
1685.66	3.4234
1685.92	7.38118
1686.18	7.38981
1686.44	1.47434
1686.7	4.44917
1686.96	7.43094
1687.22	3.49315
1687.48	6.46633
1687.73	6.47081
1687.99	1.53463
1688.25	3.51296
1688.51	3.51686
1688.77	5.4949
1689.03	2.53422
1689.29	5.49384
1689.55	-0.427475
1689.81	2.53343
1690.06	-1.41333
1690.32	2.53076
1690.58	-2.39484
1690.84	-0.403378
1691.1	-0.388893
1691.36	7.51741
1691.62	-0.365067
1691.88	1.62219
1692.13	4.596
1692.39	3.61801
1692.65	-4.27102
1692.91	-0.321033
1693.17	0.665955
1693.43	8.55535
1693.69	-2.29692
1693.95	-1.31486
1694.2	0.65657
1694.46	6.56904
1694.72	-0.328884
1694.98	4.59885
1695.24	6.57729
1695.5	0.678951
1695.76	0.690639
1696.01	0.702465
1696.27	1.70008
1696.53	3.68655
1696.79	2.71484
1697.05	-3.18927
1697.31	3.714
1697.57	1.74387
1697.82	-0.228645
1698.08	1.73842
1698.34	-0.230988
1698.6	8.62974
1698.86	3.70955
1699.12	3.71241
1699.38	-1.20146
1699.63	2.74269
1699.89	1.77083
1700.15	-3.13935
1700.41	1.79104
1700.67	-0.175598
1700.92	1.79965
1701.18	-0.160339
1701.44	-0.153233
1701.7	2.80334
1701.96	-2.11198
1702.22	2.80557
1702.47	2.80684
1702.73	-0.141491
1702.99	2.80828
1703.25	-2.09797
1703.51	-2.08935
1703.77	-4.04744
1704.02	-1.09412
1704.28	-0.10445
1704.54	-0.0905685
1704.8	-0.0747757
1705.06	2.88454
1705.32	0.926937
1705.57	1.91654
1705.83	0.943901
1706.09	-1.99383
1706.35	-0.0256042
1706.61	-1.00724
1706.86	4.88448
1707.12	0.955246
1707.38	-1.99034
1707.64	-0.0268211
1707.9	3.89547
1708.16	-1.01313
1708.41	-1.01668
1708.67	1.91994
1708.93	-2.00554
1709.19	-1.02965
1709.44	-1.0293
1709.7	1.91155
1709.96	8.77113
1710.22	3.88582
1710.48	2.91805
1710.73	-1.96517
1710.99	0.00673676
1711.25	-0.955681
1711.51	1.99665
1711.77	2.99046
1712.02	0.0658798
1712.28	-4.82064
1712.54	3.02052
1712.8	6.9342
1713.06	-1.88472
1713.31	1.04245
1713.57	0.0569801
1713.83	2.98412
1714.09	0.0453873
1714.34	-4.83717
1714.6	0.0526161
1714.86	-1.89454
1715.12	-1.88647
1715.38	-0.900005
1715.63	4.97903
1715.89	1.09196
1716.15	-1.82906
1716.41	-1.82199
1716.66	-5.72498
1716.92	0.137405
1717.18	0.135582
1717.44	0.130753
1717.69	-0.852814
1717.95	2.0619
1718.21	-4.77036
1718.47	3.01992
1718.72	-0.880844
1718.98	-2.82722
1719.24	0.0993385
1719.5	-0.864555
1719.75	3.04019
1720.01	-0.846085
1720.27	0.141323
1720.53	1.12757
1720.78	6.00187
1721.04	1.13654
1721.3	6.00084
1721.56	3.08224
1721.81	1.13813
1722.07	1.13867
1722.33	3.08292
1722.59	0.165577
1722.84	1.13704
1723.1	2.10877
1723.36	5.99519
1723.62	6.96867
1723.87	-1.76597
1724.13	4.07072
1724.39	4.07753
1724.64	3.11496
1724.9	-5.6186
1725.16	-0.765144
1725.42	4.07954
1725.67	1.16418
1725.93	0.188797
1726.19	2.12728
1726.45	-0.77446
1726.7	-2.69866
1726.96	1.18531
1727.22	0.220688
1727.47	8.93311
1727.73	-1.71117
1727.99	-0.721519
1728.24	0.255363
1728.5	-1.6781
1728.76	1.22165
1729.02	5.03842
1729.27	-1.78235
1729.53	2.06429
1729.79	0.170471
1730.05	-4.62516
1730.3	-0.734287
1730.56	6.01023
1730.82	1.18092
1731.07	3.11814
1731.33	-0.684074
1731.59	-1.63664
1731.84	-1.62493
1732.1	-4.51422
1732.36	0.326408
1732.61	-1.59943
1732.87	-0.62674
1733.13	0.343822
1733.39	2.27727
1733.64	3.23996
1733.9	-0.628014
1734.16	-4.49376
1734.41	-2.56561
1734.67	4.18185
1734.93	0.322216
1735.18	5.13676
1735.44	-0.646862
1735.7	-1.61078
1735.95	0.317097
1736.21	-1.60379
1736.47	-4.48413
1736.72	-4.47713
1736.98	4.18932
1737.24	2.26964
1737.49	-0.612038
1737.75	6.12644
1738.01	-0.601135
1738.26	-0.597534
1738.52	-1.55692
1738.78	-0.593433
1739.03	-3.4743
1739.29	-3.47271
1739.55	2.28975
1739.8	-3.4769
1740.06	-4.44327
1740.32	2.2662
1740.57	-1.57546
1740.83	-2.53606
1741.09	-4.45166
1741.34	-1.57488
1741.6	-0.615101
1741.86	-0.612766
1742.11	4.17913
1742.37	0.355194
1742.63	5.15075
1742.88	-0.586246
1743.14	-5.36591
1743.4	0.385815
1743.65	0.395542
1743.91	-1.51194
1744.16	4.23177
1744.42	-4.37578
1744.68	-2.45747
1744.93	0.420067
1745.19	-0.525665
1745.45	7.13808
1745.7	-1.45972
1745.96	-0.49448
1746.22	-5.27068
1746.47	-2.3988
1746.73	5.2489
1746.98	-0.488342
1747.24	0.468166
1747.5	1.42184
1747.75	-2.39701
1748.01	-1.44093
1748.27	2.38349
1748.52	-5.24319
1748.78	-5.23188
1749.03	-2.3558
1749.29	2.43111
1749.55	1.49225
1749.8	4.37505
1750.06	-2.29097
1750.32	-1.31569
1750.57	-2.25097
1750.83	-0.320095
1751.08	0.649975
1751.34	2.57761
1751.6	-6.01457
1751.85	0.682743
1752.11	-4.09696
1752.36	-0.2766
1752.62	0.679543
1752.88	4.50063
1753.13	-5.04628
1753.39	-2.18048
1753.64	1.63971
1753.9	-0.265396
1754.15	2.60036
1754.41	8.3237
1754.67	-3.11967
1754.92	-0.254913
1755.18	-5.01661
1755.43	5.47455
1755.69	-2.14535
1755.95	-1.18868
1756.2	-0.234226
1756.46	-4.99628
1756.71	-1.18696
1756.97	-0.237801
1757.23	-2.14394
1757.48	2.61145
1757.74	0.714077
1757.99	-1.18294
1758.25	6.43921
1758.5	-1.14743
1758.76	-1.13324
1759.02	0.781258
1759.27	2.69524
1759.53	2.70619
1759.78	1.76725
1760.04	1.77683
1760.3	-2.0223
1760.55	-2.96693
1760.81	2.74787
1761.06	3.70425
1761.32	-4.85293
1761.57	-3.89925
1761.83	2.75954
1762.08	0.862923
1762.34	-0.0807419
1762.6	-1.02275
1762.85	0.895741
1763.11	-0.990982
1763.36	-5.73414
1763.62	-0.0208397
1763.87	1.89231
1764.13	-2.84898
1764.38	-4.73687
1764.64	0.988132
1764.89	1.01416
1765.15	2.93438
1765.4	1.04659
1765.66	-2.74715
1765.92	-5.59064
1766.17	2.03709
1766.43	0.14304
1766.68	-1.75253
1766.94	-0.793865
1767.19	2.06888
1767.45	-0.777634
1767.7	-4.57846
1767.96	3.03974
1768.21	3.99427
1768.47	-2.66129
1768.73	-6.46029
1768.98	2.10841
1769.24	1.14919
1769.49	3.98627
1769.75	1.12281
1770	1.11774
1770.26	3.02775
1770.51	0.198551
1770.77	-2.63154
1771.02	-0.721127
1771.28	1.19166
1771.53	0.262337
1771.79	-2.56533
1772.04	-0.649105
1772.3	-2.53926
1772.55	0.329994
1772.81	3.20187
1773.06	-0.587605
1773.32	-2.47636
1773.57	4.19946
1773.83	0.406429
1774.08	1.37162
1774.34	1.38434
1774.59	2.34819
1774.85	2.35954
1775.1	1.42274
1775.36	2.38766
1775.61	-1.40518
1775.87	0.528019
1776.12	0.548084
1776.38	-0.390671
1776.63	-2.28666
1776.89	-5.13934
1777.14	-4.1817
1777.4	0.585979
1777.65	0.590443
1777.91	-3.21905
1778.16	3.45115
1778.42	2.49937
1778.67	-0.356323
1778.93	2.49997
1779.18	2.49724
1779.44	2.49384
1779.69	4.39817
1779.95	3.45486
1780.2	2.52491
1780.46	4.4402
1780.71	-6.01733
1780.97	0.657516
1781.22	2.57434
1781.47	-3.12806
1781.73	0.690392
1781.98	-3.10579
1782.24	-1.18744
1782.49	0.732407
1782.75	6.46678
1783	1.71858
1783.26	0.779182
1783.51	2.69832
1783.77	3.66563
1784.02	5.58649
1784.28	-2.02589
1784.53	-2.01044
1784.79	1.82335
1785.04	5.65446
1785.29	0.896049
1785.55	-0.0498657
1785.8	0.910221
1786.06	3.77594
1786.31	-0.0361786
1786.57	3.78819
1786.82	6.66207
1787.08	0.953007
1787.33	2.87873
1787.58	-1.87426
1787.84	0.0584793
1788.09	0.0911865
1788.35	2.99418
1788.6	-6.5382
1788.86	3.05672
1789.11	1.15733
1789.37	-3.61319
1789.62	-2.63336
1789.87	1.21717
1790.13	2.18876
1790.38	2.20211
1790.64	0.298138
1790.89	0.306168
1791.15	0.311836
1791.4	2.22693
1791.65	1.2502
1791.91	-0.661472
1792.16	-4.48864
1792.42	0.307632
1792.67	0.316772
1792.93	-0.631367
1793.18	1.29701
1793.43	-0.608105
1793.69	4.19037
1793.94	1.32396
1794.2	4.21131
1794.45	3.26208
1794.7	2.31021
1794.96	2.31074
1795.21	-1.5033
1795.47	0.452522
1795.72	-0.478729
1795.97	-0.46117
1796.23	0.512283
1796.48	-0.433437
1796.74	0.541595
1796.99	-1.36453
1797.25	-3.27129
1797.5	-4.21844
1797.75	-0.361179
1798.01	5.41863
1798.26	2.54638
1798.51	-0.32737
1798.77	-3.20296
1799.02	0.650219
1799.28	-4.15311
1799.53	-2.22775
1799.78	3.54035
1800.04	1.61596
1800.29	3.53652
1800.55	-2.2281
1800.8	-0.30497
1801.05	-2.22343
1801.31	-3.18
1801.56	0.667027
1801.81	0.673237
1802.07	-4.1218
1802.32	-1.23135
1802.58	0.700008
1802.83	-4.09267
1803.08	-3.11949
1803.34	1.70001
1803.59	4.59942
1803.84	-0.194641
1804.1	-2.10839
1804.35	-0.176918
1804.61	3.68165
1804.86	3.69582
1805.11	-2.06366
1805.37	-3.0118
1805.62	0.854179
1805.87	-2.98186
1806.13	4.73731
1806.38	2.8243
1806.64	0.90974
1806.89	4.77555
1807.14	-0.997417
1807.4	5.75589
1807.65	-6.76757
1807.9	-0.979259
1808.16	2.88184
1808.41	0.960224
1808.66	3.85814
1808.92	-1.91866
1809.17	1.94374
1809.42	-0.941383
1809.68	2.92123
1809.93	-3.8203
1810.18	1.00688
1810.44	2.94163
1810.69	-1.87376
1810.94	1.98578
1811.2	1.98857
1811.45	1.99282
1811.7	6.817
1811.96	-5.71139
1812.21	2.00617
1812.46	2.01297
1812.72	-2.79882
1812.97	-1.82452
1813.22	0.116035
1813.48	-1.80288
1813.73	2.06298
1813.98	0.143715
1814.24	1.12234
1814.49	-1.75823
1814.74	4.05088
1815	3.10395
1815.25	-2.68035
1815.5	5.06052
1815.76	-1.69632
1816.01	4.10878
1816.26	-1.68412
1816.52	1.22179
1816.77	-1.67126
1817.02	0.269005
1817.27	-3.59607
1817.53	-1.66433
1817.78	-0.712353
1818.03	2.17554
1818.29	0.24984
1818.54	-1.67106
1818.79	6.07323
1819.05	0.285816
1819.3	-2.61168
1819.55	2.22697
1819.8	0.302563
1820.06	-1.6224
1820.31	5.15214
1820.56	3.22718
1820.82	6.13769
1821.07	0.343353
1821.32	0.350574
1821.58	1.32686
1821.83	1.33683
1822.08	1.34609
1822.33	1.3542
1822.59	1.36124
1822.84	0.399284
1823.09	1.37272
1823.34	0.409763
1823.6	-0.556046
1823.85	-1.52443
1824.1	-2.49327
1824.36	3.31586
1824.61	0.418381
1824.86	0.424828
1825.11	-1.50511
1825.37	1.4062
1825.62	5.2868
1825.87	-2.45452
1826.12	1.42263
1826.38	-1.4803
1826.63	4.3338
1826.88	-1.4734
1827.14	-1.47001
1827.39	4.34642
1827.64	3.3844
1827.89	4.36043
1828.15	4.36719
1828.4	3.40085
1828.65	2.43245
1828.9	1.46172
1829.16	-2.41662
1829.41	3.3933
1829.66	-2.41743
1829.91	1.45709
1830.17	3.39357
1830.42	1.45377
1830.67	9.19672
1830.92	-0.48777
1831.18	-0.485798
1831.43	1.45687
1831.68	0.495895
1831.93	4.37727
1832.19	1.47869
1832.44	-1.42067
1832.69	0.524197
1832.94	1.50306
1833.2	7.32605
1833.45	2.48212
1833.7	5.39245
1833.95	4.4287
1834.2	4.43217
1834.46	1.52797
1834.71	4.42634
1834.96	1.49791
1835.21	4.38343
1835.47	8.23543
1835.72	1.44944
1835.97	2.40647
1836.22	4.34146
1836.48	2.39812
1836.73	1.6
1836.98	4.5083
1837.23	0.57103
1837.48	-3.32386
1837.74	2.46144
1837.99	-1.43554
1838.24	0.459724
1838.49	4.30056
1838.74	1.39729
1839	7.27381
1839.25	1.49794
1839.5	4.42038
1839.75	-3.32459
1840	1.52636
1840.26	0.56773
1840.51	3.43624
1840.76	4.37403
1841.01	2.4135
1841.27	-0.507858
1841.52	0.439972
1841.77	3.31956
1842.02	-2.49046
1842.27	4.25153
1842.53	5.20129
1842.78	5.1863
1843.03	4.22955
1843.28	0.366962
1843.53	1.33603
1843.78	-0.594048
1844.04	5.1935
1844.29	5.18845
1844.54	-1.56382
1844.79	-1.5594
1845.04	2.29966
1845.3	5.18577
1845.55	2.29341
1845.8	1.32869
1846.05	5.2051
1846.3	4.25895
1846.55	1.3784
1846.81	3.33982
1847.06	-2.48061
1847.31	1.32306
1847.56	0.289803
1847.81	2.20084
1848.07	1.23821
1848.32	1.25811
1848.57	5.13059
1848.82	-0.671928
1849.07	2.20496
1849.32	5.09373
1849.57	1.23314
1849.83	3.14491
1850.08	0.243973
1850.33	4.07805
1850.58	3.09881
1850.83	2.12364
1851.09	4.03308
1851.34	5.9436
1851.59	4.97295
1851.84	2.08378
1852.09	0.157391
1852.34	4.95511
1852.59	1.11217
1852.84	0.150402
1853.1	3.02929
1853.35	3.02633
1853.6	4.94213
1853.85	3.97534
1854.1	6.84449
1854.35	4.91038
1854.6	-1.82109
1854.86	4.87913
1855.11	4.87014
1855.36	3.90256
1855.61	3.88771
1855.86	0.0386848
1856.11	3.86081
1856.36	-0.934631
1856.61	3.85014
1856.87	3.84787
1857.12	5.76092
1857.37	3.841
1857.62	4.79243
1857.87	5.74228
1858.12	5.7342
1858.37	4.76724
1858.63	0.927174
1858.88	1.87218
1859.13	6.64323
1859.38	2.80338
1859.63	8.52695
1859.88	2.77943
1860.13	1.81961
1860.38	1.81699
1860.63	5.64109
1860.89	-2.9596
1861.14	-1.99961
1861.39	3.74255
1861.64	3.74781
1861.89	4.7087
1862.14	6.62202
1862.39	2.78875
1862.64	1.82237
1862.9	-0.103004
1863.15	3.70974
1863.4	6.56444
1863.65	6.55041
1863.9	4.6256
1864.15	0.791389
1864.4	5.55724
1864.65	5.54574
1864.9	5.5341
1865.15	6.47589
1865.4	5.50584
1865.66	3.57997
1865.91	2.60777
1866.16	7.3558
1866.41	2.56614
1866.66	9.21368
1866.91	4.42719
1867.16	5.35672
1867.41	6.28579
1867.66	0.556828
1867.91	10.0506
1868.16	4.33303
1868.41	7.1761
1868.67	3.3662
1868.92	7.16547
1869.17	2.41032
1869.42	5.25788
1869.67	1.44868
1869.92	6.19479
1870.17	3.33621
1870.42	6.18117
1870.67	9.02584
1870.92	8.06907
1871.17	2.36107
1871.42	8.05827
1871.67	4.24903
1871.92	5.18965
1872.17	9.92757
1872.42	2.31743
1872.68	7.05775
1872.93	4.19537
1873.18	6.08051
1873.43	11.7656
1873.68	6.06259
1873.93	1.30786
1874.18	14.5846
1874.43	9.82475
1874.68	0.321503
1874.93	6.94579
1875.18	9.7734
1875.43	5.96271
1875.68	4.99694
1875.93	13.502
1876.18	7.78598
1876.43	7.76307
1876.68	7.74314
1876.93	8.67226
1877.18	8.66002
1877.43	10.521
1877.68	9.54001
1877.93	11.3651
1878.18	2.90143
1878.44	3.05312
1878.69	11.5068
1878.93	8.6394
1879.19	6.73539
1879.44	5.82756
1879.69	8.68557
1879.94	10.5593
1880.19	13.3786
1880.44	7.68939
1880.69	2.94666
1880.94	2.00367
1881.19	7.66885
1881.44	9.55402
1881.69	10.4737
1881.94	7.60501
1882.19	8.52033
1882.44	5.65349
1882.69	6.56511
1882.94	12.1882
1883.19	1.78989
1883.44	12.1226
1883.69	13.4145
1883.94	8.45061
1884.19	8.3166
1884.44	10.1991
1884.69	7.39393
1884.94	7.36211
1885.19	11.1453
1885.44	10.2223
1885.69	9.27962
1885.94	10.2232
1886.19	11.1858
1886.44	6.46989
1886.69	10.2487
1886.94	13.0701
1887.19	14.929
1887.44	12.0786
1887.69	8.28544
1887.94	5.43677
1888.19	4.47517
1888.44	12.941
1888.69	10.0858
1888.94	4.40858
1889.19	8.15472
1889.44	3.42503
1889.69	11.8831
1889.94	9.05026
1890.19	10.9235
1890.44	10.9214
1890.69	8.1013
1890.94	4.33824
1891.19	10.9276
1891.43	8.09298
1891.68	8.08139
1891.94	7.1315
1892.18	9.00457
1892.43	4.28639
1892.68	9.92727
1892.93	8.02969
1893.18	13.66
1893.43	11.7513
1893.68	13.5955
1893.93	6.98168
1894.18	7.90829
1894.43	6.96873
1894.68	10.7025
1894.93	8.80677
1895.18	6.91649
1895.43	7.84977
1895.68	6.90627
1895.93	5.02428
1896.18	5.96179
1896.43	6.9001
1896.68	5.02011
1896.93	7.84203
1897.18	6.90224
1897.42	5.01967
1897.68	5.95678
1897.92	4.06978
1898.17	16.2903
1898.42	6.87288
1898.67	12.5024
1898.92	4.96241
1899.17	4.00385
1899.42	8.68377
1899.67	8.66622
1899.92	9.59253
1900.17	10.5174
1900.42	7.68466
1900.67	3.91746
1900.92	1.09258
1901.16	6.72555
1901.41	3.90638
1901.66	9.54657
1901.91	6.72808
1902.16	11.4306
1902.41	7.67299
1902.66	5.79385
1902.91	8.60809
1903.16	0.1301
1903.41	12.3439
1903.66	5.74635
1903.91	8.55469
1904.16	12.304
1904.41	2.8908
1904.65	9.46219
1904.9	8.51169
1905.15	5.6801
1905.4	6.60966
1905.65	5.66026
1905.9	9.40898
1906.15	2.80784
1906.4	-1.91313
1906.65	5.58707
1906.9	0.876816
1907.14	8.3765
1907.39	9.30315
1907.64	3.66061
1907.89	6.47171
1908.14	6.46908
1908.39	3.65095
1908.64	6.46421
1908.89	5.51846
1909.14	-2.00282
1909.39	8.33228
1909.63	9.27333
1909.88	5.51614
1910.13	12.1048
1910.38	7.40923
1910.63	10.2407
1910.88	4.59873
1911.13	14.9586
1911.38	1.77251
1911.62	8.36124
1911.87	5.5281
1912.12	6.46051
1912.37	1.73837
1912.62	8.31914
1912.87	2.65771
1913.12	8.29935
1913.37	3.58094
1913.61	8.28264
1913.86	11.107
1914.11	3.57423
1914.36	6.4069
1914.61	4.52295
1914.86	9.23825
1915.11	8.2966
1915.36	7.35349
1915.6	7.351
1915.85	5.45711
1916.1	3.5592
1916.35	2.60234
1916.6	9.19486
1916.85	6.34794
1917.1	1.61229
1917.34	10.0821
1917.59	6.29343
1917.84	9.10716
1918.09	10.0371
1918.34	7.20049
1918.59	11.912
1918.83	8.14176
1919.08	4.37194
1919.33	3.43232
1919.58	3.437
1919.83	7.22335
1920.08	5.34146
1920.33	6.28544
1920.57	7.22268
1920.82	8.15195
1921.07	5.31074
1921.32	3.42257
1921.57	9.09688
1921.81	0.584923
1922.06	10.0376
1922.31	3.4119
1922.56	12.8597
1922.81	6.22544
1923.06	5.26247
1923.31	5.24564
1923.55	3.34033
1923.8	7.10764
1924.05	8.9833
1924.3	6.13085
1924.55	8.00194
1924.79	3.26182
1925.04	4.19459
1925.29	7.96535
1925.54	2.29222
1925.79	7.01685
1926.04	5.13078
1926.28	6.07925
1926.53	12.7029
1926.78	9.86911
1927.03	8.92867
1927.28	2.30212
1927.52	5.13903
1927.77	7.02926
1928.02	8.91932
1928.27	2.28435
1928.52	7.01542
1928.76	7.00851
1929.01	3.21444
1929.26	8.89578
1929.51	6.05011
1929.76	6.99831
1930	5.10655
1930.25	4.15955
1930.5	6.06086
1930.75	8.90934
1931	3.21639
1931.24	7.95647
1931.49	6.99794
1931.74	5.08485
1931.99	4.11887
1932.24	4.10207
1932.48	5.98302
1932.73	5.01687
1932.98	3.10149
1933.23	0.242699
1933.47	3.0721
1933.72	9.70479
1933.97	4.01557
1934.22	0.229885
1934.46	4.99697
1934.71	2.17551
1934.96	5.05778
1935.21	2.22499
1935.46	4.14754
1935.7	4.15961
1935.95	5.11824
1936.2	6.98246
1936.45	6.01368
1936.69	2.18783
1936.94	5.03008
1937.19	7.86761
1937.44	4.03466
1937.68	5.91885
1937.93	5.89789
1938.18	1.1187
1938.43	6.80923
1938.68	2.03941
1938.92	3.9481
1939.17	2.03843
1939.42	-3.67953
1939.67	2.98338
1939.91	1.07322
1940.16	4.88055
1940.41	5.82443
1940.66	9.63745
1940.9	4.87292
1941.15	3.93933
1941.4	3.94623
1941.64	3.93532
1941.89	-0.852535
1942.14	2.937
1942.39	3.85202
1942.63	1.95075
1942.88	6.75834
1943.13	3.89447
1943.38	3.88537
1943.62	2.90113
1943.87	10.5022
1944.12	3.79667
1944.37	1.90644
1944.61	4.76871
1944.86	5.72236
1945.11	1.90255
1945.35	4.76821
1945.6	2.85794
1945.85	2.85806
1946.1	-0.0106697
1946.34	1.89849
1946.59	0.93792
1946.84	7.62638
1947.09	-0.0331306
1947.33	0.911293
1947.58	5.67819
1947.83	2.79335
1948.07	-1.04375
1948.32	5.63837
1948.57	6.58306
1948.82	1.78725
1949.06	4.64695
1949.31	2.73165
1949.56	9.42573
1949.8	2.72835
1950.05	6.55684
1950.3	2.72961
1950.54	-3.00841
1950.79	-0.126873
1951.04	0.835636
1951.29	2.75932
1951.53	2.76699
1951.78	1.81366
1952.03	2.7761
1952.27	-1.06649
1952.52	0.849304
1952.77	2.76608
1953.01	0.832348
1953.26	3.71096
1953.51	1.79001
1953.76	2.72694
1954	7.49952
1954.25	1.6983
1954.49	0.703098
1954.74	8.33716
1954.99	0.637573
1955.24	-2.25377
1955.48	3.48128
1955.73	1.55959
1955.98	2.51883
1956.22	5.40365
1956.47	3.50796
1956.72	4.4697
1956.96	0.633919
1957.21	2.55076
1957.46	7.35251
1957.7	3.50952
1957.95	1.58556
1958.2	1.58089
1958.44	1.57431
1958.69	-0.355888
1958.94	-3.24844
1959.18	-2.30179
1959.43	0.561974
1959.68	8.23322
1959.92	3.41607
1960.17	3.39769
1960.42	2.41864
1960.66	0.479752
1960.91	3.34188
1961.16	1.40178
1961.4	-5.33651
1961.65	-1.51455
1961.9	0.38929
1962.14	3.25866
1962.39	3.25017
1962.63	2.2811
1962.88	2.27195
1963.13	-1.57668
1963.37	6.09312
1963.62	1.28407
1963.87	-0.645454
1964.11	3.18574
1964.36	-3.54077
1964.61	1.25388
1964.85	-2.5991
1965.1	4.10793
1965.35	-3.58394
1965.59	-0.715984
1965.84	-4.56705
1966.08	0.227314
1966.33	4.06664
1966.58	1.18416
1966.82	-1.69975
1967.07	-0.743172
1967.32	3.09608
1967.56	1.16124
1967.81	4.03412
1968.05	1.14345
1968.3	0.172787
1968.55	-1.75903
1968.79	-0.809601
1969.04	1.09799
1969.29	4.92349
1969.53	2.97871
1969.78	1.0317
1970.02	-3.79495
1970.27	-5.73642
1970.52	3.84304
1970.76	0.946117
1971.01	5.72504
1971.25	-1.0092
1971.5	-3.90303
1971.75	-0.081089
1971.99	1.82273
1972.24	0.855919
1972.48	-2.98796
1972.73	-3.95611
1972.98	1.78852
1973.22	2.73289
1973.47	-3.04046
1973.71	-1.1427
1973.96	2.67342
1974.21	-0.219559
1974.45	-3.10976
1974.7	-0.246838
1974.94	-1.21602
1975.19	2.60883
1975.44	-0.274078
1975.68	1.63821
1975.93	-1.24237
1976.17	1.6296
1976.42	-2.21303
1976.66	3.53405
1976.91	4.48424
1977.16	-0.322609
1977.4	-0.334709
1977.65	0.610729
1977.89	1.5539
1978.14	3.45387
1978.39	-0.399769
1978.63	-5.20965
1978.88	4.36067
1979.12	-0.445549
1979.37	1.46058
1979.61	-2.38273
1979.86	1.44081
1980.1	-2.40229
1980.35	-5.2881
1980.6	-4.34406
1980.84	0.429771
1981.09	3.28602
1981.33	2.31319
1981.58	-4.40975
1981.82	2.28012
1982.07	3.22411
1982.31	-0.619232
1982.56	-2.54706
1982.81	3.18121
1983.05	4.12008
1983.3	-0.687893
1983.54	-2.62512
1983.79	4.05218
1984.03	0.210369
1984.28	5.93594
1984.52	0.18174
1984.77	3.99202
1985.02	3.0211
1985.26	3.95879
1985.51	-0.843765
1985.75	-0.859692
1986	0.0858192
1986.24	1.98976
1986.49	0.0737953
1986.73	1.98313
1986.98	2.93282
1987.22	0.0520782
1987.47	-3.78007
1987.71	-2.8413
1987.96	0.959396
1988.21	-0.977127
1988.45	-1.00385
1988.7	-0.0786858
1988.94	1.77423
1989.19	-1.07265
1989.43	-6.69813
1989.68	6.23396
1989.92	-3.86055
1990.17	2.49228
1990.41	-0.227268
1990.66	-4.7899
1990.9	0.541885
1991.15	-3.66719
1991.39	2.37017
1991.64	-1.38282
1991.88	-1.03539
1992.13	4.10682
1992.37	1.78392
1992.62	-4.51546
1992.86	1.49995
1993.11	-1.37146
1993.35	1.28069
1993.6	-0.849499
1993.84	4.22355
1994.09	-0.694138
1994.33	-0.903496
1994.58	2.20439
1994.82	1.71631
1995.07	2.84325
1995.31	0.908497
1995.56	0.408596
1995.8	0.362057
1996.05	-1.61946
1996.29	3.65824
1996.54	2.64411
1996.78	-2.80664
1997.03	0.717819
1997.27	-7.81783
1997.52	0.633652
1997.76	-1.18794
1998.01	0.938034
1998.25	0.518208
1998.5	1.46689
1998.74	2.79988
1998.99	2.06432
1999.23	-0.0783691
1999.48	2.64216
1999.72	-1.93378
1999.97	-1.32071
2000.21	-1.46914
2000.46	1.4373
2000.7	0.148617
2000.95	-0.649342
2001.19	-2.06173
2001.43	0.15498
2001.68	-1.20787
2001.92	-2.88742
2002.17	-0.530628
2002.41	0.0293388
2002.66	-1.3163
2002.9	-1.02785
2003.15	-1.60073
2003.39	0.122612
2003.64	-0.949123
2003.88	0.12402
2004.13	0.658588
2004.37	1.56797
2004.61	2.14492
2004.86	0.562546
2005.1	0.2029
2005.35	-2.8812
2005.59	0.904232
2005.84	-0.892689
2006.08	-2.40109
2006.33	2.17258
2006.57	0.938496
2006.81	4.21593
2007.06	0.459904
2007.3	1.39422
2007.55	3.98265
2007.79	1.14758
2008.04	-0.763638
2008.28	-3.03896
2008.53	-1.38761
2008.77	0.581825
2009.01	0.0647469
2009.26	-0.179813
2009.5	0.705318
2009.75	0.0855141
2009.99	3.00442
2010.24	0.687305
2010.48	-0.280128
2010.73	-1.50194
2010.97	1.72161
2011.21	0.678219
2011.46	-0.319614
2011.7	-1.91036
2011.95	-1.97977
2012.19	-0.105354
2012.43	3.55024
2012.68	1.65445
2012.92	-1.18212
2013.17	2.56578
2013.42	-0.282261
2013.67	1.56824
2013.91	1.54645
2014.16	3.4009
2014.41	1.49224
2014.66	-0.418571
2014.9	-0.447552
2015.15	-5.1539
2015.4	-3.28349
2015.64	-3.28618
2015.89	1.40662
2016.14	4.2206
2016.39	-1.42569
2016.63	2.33327
2016.88	-4.21841
2017.13	2.35853
2017.37	1.40768
2017.62	-1.42659
2017.87	-0.505333
2018.11	2.29051
2018.36	-1.49103
2018.61	-4.33233
2018.86	1.27327
2019.1	-1.56485
2019.35	-2.52742
2019.6	0.260212
2019.84	-0.693291
2020.09	1.16589
2020.34	-1.65547
2020.58	0.208954
2020.83	3.00861
2021.08	2.06231
2021.33	-1.68921
2021.57	3.92556
2021.82	-2.6385
2022.07	-2.64829
2022.31	-3.5965
2022.56	0.135471
2022.81	1.05538
2023.05	0.100529
2023.3	1.01583
2023.55	0.062809
2023.8	-1.82542
2024.04	0.962826
2024.29	0.945259
2024.54	2.79819
2024.78	-0.9627
2025.03	0.882694
2025.27	-0.0738487
2025.52	0.837914
2025.77	-2.91594
2026.02	1.72982
2026.26	-1.09182
2026.51	0.770504
2026.76	-3.88507
2027	-2.93265
2027.25	0.829781
2027.5	-3.81403
2027.74	-3.79934
2027.99	-4.74771
2028.23	-0.105556
2028.48	0.779743
2028.73	0.64727
2028.98	3.56433
2029.22	3.73616
2029.47	-5.7253
2029.72	6.47902
2029.96	-1.09727
2030.21	3.51662
2030.45	-1.20971
2030.7	-5.88266
2030.95	-1.26211
2031.19	-4.03497
2031.44	-3.08434
2031.69	-2.16459
2031.93	-0.305119
2032.18	-1.24379
2032.43	1.56223
2032.67	-3.09751
2032.92	2.51529
2033.17	2.52433
2033.41	-0.273823
2033.66	0.663509
2033.91	0.670368
2034.15	-0.264915
2034.4	4.37848
2034.64	-1.26631
2034.89	-2.25102
2035.14	0.529739
2035.38	-1.3239
2035.63	0.551811
2035.87	-0.362747
2036.12	1.53313
2036.37	4.35666
2036.61	4.34805
2036.86	0.57645
2037.11	0.571339
2037.35	-2.22912
2037.6	3.37434
2037.84	-1.30946
2038.09	-2.25508
2038.34	0.537582
2038.58	2.39407
2038.83	0.511177
2039.08	4.23498
2039.32	0.483887
2039.57	-0.464394
2039.81	0.455563
2040.06	6.04131
2040.31	-0.513519
2040.55	0.401066
2040.8	-7.08035
2041.04	3.16391
2041.29	-0.582294
2041.54	0.336086
2041.78	2.19081
2042.03	-2.47918
2042.27	2.16929
2042.52	1.22564
2042.77	-0.65374
2043.01	-1.59497
2043.26	1.19401
2043.5	-1.60311
2043.75	-0.665073
2044	3.07681
2044.24	-2.50568
2044.49	-0.638912
2044.73	-5.31153
2044.98	-1.59614
2045.23	0.242725
2045.47	-1.66677
2045.72	1.17922
2045.96	0.255123
2046.21	-0.61932
2046.45	-6.16623
2046.7	-1.53061
2046.95	3.09156
2047.19	-5.35038
2047.44	-4.42084
2047.68	-2.57235
2047.93	-0.747559
2048.17	1.10173
2048.42	3.89492
2048.67	-2.63398
2048.91	0.160454
2049.16	2.02472
2049.4	-1.69902
2049.65	-5.42654
2049.89	-3.554
2050.14	-3.54387
2050.39	-0.736378
2050.63	-1.66286
2050.88	-1.66114
2051.12	-4.4669
2051.37	-1.67209
2051.61	-1.68628
2051.86	0.163097
2052.11	-3.57742
2052.35	2.02085
2052.6	-0.778595
2052.84	-0.78167
2053.09	1.08677
2053.33	2.02358
2053.58	3.89692
2053.82	3.90482
2054.07	-3.55737
2054.31	3.92801
2054.56	2.05891
2054.8	5.79748
2055.05	-4.49842
2055.3	2.04232
2055.54	-1.70725
2055.79	3.88802
2056.03	1.07253
2056.28	2.93543
2056.52	0.121368
2056.77	3.85073
2057.01	4.77747
2057.26	-5.50933
2057.5	-2.70784
2057.75	-6.44844
2058	-1.77343
2058.24	-0.836182
2058.49	-0.833908
2058.73	-1.76279
2058.98	1.98553
2059.22	-1.75259
2059.47	0.121922
2059.71	-2.68811
2059.96	-0.817783
2060.2	1.98733
2060.45	1.97688
2060.69	0.093277
2060.94	0.0839195
2061.18	-1.7869
2061.43	-2.72092
2061.67	0.0877991
2061.92	1.02176
2062.16	1.0185
2062.41	-0.856731
2062.65	-2.73052
2062.9	4.7618
2063.14	1.01833
2063.39	-3.66143
2063.63	-1.78455
2063.88	1.02858
2064.12	1.96688
2064.37	-0.845024
2064.61	0.0919151
2064.86	0.0932503
2065.1	-0.841625
2065.35	1.04063
2065.59	1.98913
2065.84	-3.63208
2066.08	-2.68707
2066.33	0.134132
2066.57	-7.37536
2066.82	2.95179
2067.06	2.014
2067.31	-2.68067
2067.55	3.89467
2067.8	3.89747
2068.04	1.08303
2068.29	1.08578
2068.53	4.84657
2068.78	0.146183
2069.02	0.149372
2069.27	-5.49442
2069.51	-1.74414
2069.76	3.87758
2070	1.03421
2070.25	1.96161
2070.49	-0.855167
2070.73	-3.65872
2070.98	1.99977
2071.22	1.08057
2071.47	2.0141
2071.71	-0.824677
2071.96	3.93061
2072.2	-1.70298
2072.45	-1.70973
2072.69	0.166714
2072.94	2.98658
2073.18	2.97881
2073.43	1.09221
2073.67	1.0862
2073.92	-4.56427
2074.16	2.02459
2074.4	0.14082
2074.65	-1.74085
2074.89	-1.73582
2075.14	2.04134
2075.38	2.05474
2075.63	-2.6417
2075.87	0.20842
2076.12	-4.49708
2076.36	3.0592
2076.6	1.16917
2076.85	5.88827
2077.09	-0.728256
2077.34	-0.740849
2077.58	-1.69797
2077.83	2.99374
2078.07	-1.73002
2078.31	5.81712
2078.56	0.165325
2078.8	-0.777054
2079.05	5.82845
2079.29	-2.65989
2079.54	0.179005
2079.78	3.03083
2080.03	-2.62941
2080.27	2.09863
2080.51	-3.56573
2080.76	-4.50813
2081	-1.67552
2081.25	1.15162
2081.49	-3.57891
2081.74	0.196144
2081.98	0.192699
2082.22	0.188004
2082.47	-0.756119
2082.71	1.13435
2082.96	3.02419
2083.2	-3.59281
2083.45	-1.70638
2083.69	0.178867
2083.93	3.00898
2084.18	2.0613
2084.42	1.11421
2084.67	3.00079
2084.91	1.10888
2085.15	-0.782383
2085.4	6.77538
2085.64	4.88247
2085.89	-0.790123
2086.13	-1.73475
2086.37	5.83679
2086.62	4.90525
2086.86	-1.70663
2087.11	0.187141
2087.35	-1.70202
2087.59	3.03411
2087.84	-0.749123
2088.08	-4.53685
2088.32	-3.59237
2088.57	2.08469
2088.81	-2.64801
2089.06	-1.70171
2089.3	-2.64869
2089.54	-0.750916
2089.79	3.04187
2090.03	-0.736053
2090.28	-0.734245
2090.52	-7.36548
2090.76	2.10859
2091.01	3.05814
2091.25	1.166
2091.5	-1.67419
2091.74	3.06712
2091.98	0.233379
2092.23	0.24464
2092.47	-5.43464
2092.72	-0.679035
2092.96	0.283825
2093.2	0.294067
2093.45	1.25325
2093.69	2.21323
2093.93	1.27254
2094.18	-0.620911
2094.42	-0.61459
2094.66	1.28732
2094.91	0.334198
2095.15	-0.62104
2095.39	-2.52792
2095.64	0.313877
2095.88	6.95514
2096.13	4.09476
2096.37	0.286427
2096.61	-3.51929
2096.86	3.12666
2097.1	-2.57716
2097.34	-0.685707
2097.59	4.05107
2097.83	-6.40497
2098.07	4.03233
2098.32	1.17954
2098.56	4.97205
2098.8	-1.68139
2099.05	2.11303
2099.29	2.10965
2099.53	1.15558
2099.78	-1.69572
2100.02	3.99533
2100.27	-1.7004
2100.51	3.99315
2100.75	3.04475
2101	-1.69835
2101.24	-1.68943
2101.48	2.11577
2101.73	2.11982
2101.97	-1.67844
2102.21	1.16898
2102.45	3.06537
2102.7	-0.735607
2102.94	-1.69011
2103.18	3.99825
2103.43	2.08698
2103.67	-1.71769
2103.92	-2.67023
2104.16	2.0714
2104.4	-4.57443
2104.64	7.7685
2104.89	0.179047
2105.13	2.08334
2105.37	4.93754
2105.62	4.94467
2105.86	2.10385
2106.1	6.86303
2106.35	1.16424
2106.59	1.16714
2106.83	4.01957
2107.08	0.217201
2107.32	1.17037
2107.56	-1.68233
2107.8	-2.6399
2108.05	1.15179
2108.29	-1.71321
2108.53	3.97253
2108.78	-0.791775
2109.02	-2.70245
2109.26	1.08992
2109.51	2.98909
2109.75	2.99993
2109.99	3.00818
2110.23	-1.74302
2110.48	0.155209
2110.72	-2.6967
2110.96	3.00122
2111.21	-1.75046
2111.45	1.09718
2111.69	2.9919
2111.93	2.03344
2112.18	3.92599
2112.42	1.07221
2112.66	-1.77879
2112.91	4.87193
2113.15	1.0761
2113.39	1.07994
2113.63	2.04007
2113.88	-5.55495
2114.12	-0.800339
2114.36	1.09602
2114.61	2.04031
2114.85	2.98783
2115.09	-6.51556
2115.33	-0.813957
2115.58	3.93356
2115.82	2.97711
2116.06	-1.77963
2116.31	4.86571
2116.55	2.00369
2116.79	2.9423
2117.03	-0.862789
2117.28	-3.71582
2117.52	2.92771
2117.76	7.67611
2118	-3.72565
2118.25	-0.886028
2118.49	0.0537949
2118.73	4.78456
2118.97	0.0240974
2119.22	2.8571
2119.46	-1.89658
2119.7	0.936443
2119.94	5.66429
2120.19	2.80973
2120.43	2.8008
2120.67	-0.0462036
2120.91	-3.83688
2121.16	8.48876
2121.4	-0.985962
2121.64	-5.7177
2121.88	-1.9164
2122.13	0.937183
2122.37	0.94529
2122.61	1.90126
2122.85	0.00888062
2123.1	4.75914
2123.34	-0.932293
2123.58	0.968407
2123.82	-2.82908
2124.07	0.0136032
2124.31	3.80342
2124.55	0.945858
2124.79	-0.965858
2125.03	0.911068
2125.28	-1.00943
2125.52	1.8112
2125.76	0.84552
2126	1.77606
2126.25	-3.91984
2126.49	-2.03997
2126.73	2.67976
2126.97	-0.17049
2127.21	2.65502
2127.46	3.58847
2127.7	-0.199909
2127.94	-0.204121
2128.18	3.57289
2128.43	4.51099
2128.67	4.50587
2128.91	-2.11264
2129.15	-2.11428
2129.39	-2.11792
2129.64	4.49276
2129.88	1.65209
2130.12	-1.18713
2130.36	6.36887
2130.6	-0.250904
2130.85	1.63345
2131.09	0.682037
2131.33	-0.270348
2131.57	0.665451
2131.81	4.43369
2132.06	-1.24099
2132.3	-1.24736
2132.54	2.52179
2132.78	-1.26531
2133.02	-0.331947
2133.27	2.49252
2133.51	2.4899
2133.75	-0.340927
2133.99	4.37735
2134.23	1.54488
2134.48	4.37631
2134.72	-0.342907
2134.96	0.597664
2135.2	0.594307
2135.44	6.25319
2135.68	3.41758
2135.93	-0.363663
2136.17	2.45653
2136.41	-4.1622
2136.65	3.36561
2136.89	-4.18526
2137.14	-1.35726
2137.38	6.18481
2137.62	1.46989
2137.86	7.1305
2138.1	-1.34782
2138.34	2.41883
2138.59	6.1738
2138.83	0.505131
2139.07	1.45447
2139.31	0.524948
2139.55	-1.35265
2139.79	5.22229
2140.03	2.37315
2140.28	4.24707
2140.52	3.29505
2140.76	-4.24959
2141	3.27905
2141.24	1.38928
2141.49	0.441525
2141.73	3.26546
2141.97	4.19476
2142.21	5.12253
2142.45	-1.47327
2142.69	3.23114
2142.93	6.06319
2143.18	7.95258
2143.42	2.34076
2143.66	-1.44916
2143.9	0.314518
2144.14	4.07073
2144.38	0.318676
2144.62	5.03387
2144.87	-1.53409
2145.11	0.354141
2145.35	-0.615406
2145.59	-0.6138
2145.83	0.326336
2146.07	-2.49929
2146.31	2.19547
2146.55	-1.5713
2146.8	1.24268
2147.04	-2.5232
2147.28	-0.650272
2147.52	3.09966
2147.76	-0.667664
2148	-0.675762
2148.24	3.07446
2148.48	5.88405
2148.73	-5.39419
2148.97	-5.40201
2149.21	0.222462
2149.45	-3.54433
2149.69	-2.61861
2149.93	2.05081
2150.17	1.09925
2150.42	1.08367
2150.66	-1.74066
2150.9	-5.49695
2151.14	-3.62566
2151.38	-1.74979
2151.62	-3.61977
2151.86	5.7584
2152.1	-1.73807
2152.34	2.95173
2152.58	3.89429
2152.83	2.94629
2153.07	2.93674
2153.31	-3.63776
2153.55	3.85145
2153.79	-0.841904
2154.03	3.8373
2154.27	-1.79617
2154.51	1.93742
2154.75	0.0451164
2154.99	-1.84972
2155.24	3.744
2155.48	0.912628
2155.72	0.894684
2155.96	-1.92643
2156.2	0.862782
2156.44	-0.0833664
2156.68	6.44842
2156.92	-1.02998
2157.16	-0.0997276
2157.4	-1.03643
2157.64	-0.101578
2157.89	1.77084
2158.13	-1.0265
2158.37	1.78214
2158.61	-1.02276
2158.85	1.77829
2159.09	2.70793
2159.33	3.63538
2159.57	-4.7842
2159.81	-0.122295
2160.05	2.66778
2160.29	-1.08296
2160.53	-2.96474
2160.77	2.62341
2161.01	2.61075
2161.25	1.66916
2161.5	-0.202686
2161.74	-3.00918
2161.98	-1.15045
2162.22	-0.222214
2162.46	2.5734
2162.7	-2.09404
2162.94	-0.232002
2163.18	-1.172
2163.42	-3.97922
2163.66	0.675957
2163.9	1.60052
2164.14	6.25412
2164.38	-3.07823
2164.62	-2.15874
2164.86	-2.17363
2165.11	7.13287
2165.35	-0.321953
2165.59	3.40685
2165.83	0.608829
2166.07	0.60635
2166.31	-4.05569
2166.55	2.45844
2166.79	1.51815
2167.03	-5.013
2167.27	8.94536
2167.51	-1.30936
2167.75	-2.25427
2167.99	-8.78583
2168.23	-1.3658
2168.47	-0.459576
2168.71	4.17815
2168.95	-1.4043
2169.19	1.38408
2169.43	2.31707
2169.67	-3.25641
2169.91	-1.38689
2170.15	2.34805
2170.39	4.22582
2170.63	2.37156
2170.87	0.509876
2171.11	-7.87796
2171.35	2.35242
2171.59	-0.448418
2171.83	-2.33185
2172.07	-0.506908
2172.31	-2.38683
2172.56	2.24814
2172.79	-2.41019
2173.04	-2.41984
2173.28	5.93719
2173.51	1.28738
2173.76	2.21217
2174	4.99956
2174.24	1.2856
2174.48	-1.50155
2174.72	-1.50309
2174.96	-3.365
2175.2	1.27804
2175.44	2.20285
2175.68	1.26661
2175.92	3.11835
2176.16	1.25437
2176.4	1.24811
2176.64	-0.617889
2176.88	-1.55796
2177.12	-5.2803
2177.36	-1.56834
2177.6	-2.49986
2177.84	-2.50288
2178.08	1.20813
2178.32	-2.50982
2178.55	-0.660137
2178.8	-0.676559
2179.03	3.02409
2179.28	0.23354
2179.52	3.01719
2179.75	3.01407
2180	0.225136
2180.23	-2.56451
2180.47	-1.64027
2180.71	-2.57409
2180.95	-0.724079
2181.19	-2.58778
2181.43	2.04863
2181.67	3.89809
2181.91	-1.68106
2182.15	-5.40258
2182.39	-2.62482
2182.63	-3.56257
2182.87	0.140343
2183.11	-2.65134
2183.35	4.75623
2183.59	1.9583
2183.83	1.01275
2184.07	0.998383
2184.31	0.0598526
2184.55	0.048748
2184.79	0.968929
2185.03	0.0397644
2185.27	-1.81318
2185.51	-5.52093
2185.75	3.74627
2185.99	-1.8133
2186.23	-5.5183
2186.47	-1.80593
2186.7	0.980137
2186.95	-0.865814
2187.18	-3.64011
2187.42	3.79467
2187.66	-0.837555
2187.9	-2.6893
2188.14	-0.833557
2188.38	-0.842873
2188.62	1.93035
2188.86	-2.72547
2189.1	0.973209
2189.34	2.81308
2189.58	-0.915928
2189.82	3.70129
2190.06	0.901333
2190.3	-4.67157
2190.54	3.66489
2190.78	-0.973431
2191.01	0.880222
2191.25	0.87973
2191.49	-5.61494
2191.73	-0.980942
2191.97	-1.90889
2192.21	-2.83672
2192.45	-3.76484
2192.69	1.79947
2192.93	-0.0559006
2193.17	0.875244
2193.41	-3.76078
2193.65	-2.83014
2193.89	0.888607
2194.13	4.61967
2194.36	-0.934967
2194.6	0.00499344
2194.84	3.72751
2195.08	2.79042
2195.32	-0.00875473
2195.56	1.8406
2195.8	-0.0304489
2196.04	-2.83267
2196.28	-0.0635719
2196.52	0.843678
2196.76	4.53623
2197	-2.90524
2197.23	-1.06297
2197.47	-4.78614
2197.71	-2.01476
2197.95	-0.164295
2198.19	-2.95039
2198.43	1.68778
2198.67	-2.94466
2198.91	3.55859
2199.15	0.783806
2199.38	-1.06182
2199.62	2.6629
2199.86	-2.90131
2200.1	-3.8211
2200.34	3.63578
2200.58	-0.0640984
2200.82	3.67731
2201.06	0.899021
2201.3	-1.88666
2201.54	6.50715
2201.77	-3.7674
2202.01	2.69709
2202.25	-1.12891
2202.49	4.36324
2202.73	1.60775
2202.97	-1.10043
2203.21	2.65192
2203.45	1.70272
2203.68	-2.03176
2203.92	2.65588
2204.16	1.87917
2204.4	-2.84916
2204.64	3.66917
2204.88	1.80763
2205.12	-1.0271
2205.36	-1.07373
2205.59	-3.9068
2205.83	-2.07661
2206.07	4.4193
2206.31	-0.233322
2206.55	-0.227566
2206.79	1.62885
2207.03	3.46467
2207.26	0.673576
2207.5	-0.254238
2207.74	-0.250641
2207.98	-1.1762
2208.22	0.68948
2208.46	1.62528
2208.7	1.63014
2208.93	-7.67613
2209.17	0.704655
2209.41	1.63575
2209.65	4.42754
2209.89	-0.233936
2210.13	1.62201
2210.36	3.48123
2210.6	-1.17472
2210.84	1.62149
2211.08	2.55598
2211.32	1.62691
2211.56	0.697132
2211.8	-0.232208
2212.03	2.5701
2212.27	-0.222252
2212.51	3.51074
2212.75	-0.222115
2212.99	-0.230648
2213.23	-1.1735
2213.46	-1.1833
2213.7	-0.263588
2213.94	2.51962
2214.18	2.51709
2214.42	-1.20852
2214.66	1.6042
2214.89	-2.11528
2215.13	0.684586
2215.37	2.55047
2215.61	-0.252323
2215.85	1.61174
2216.08	5.34228
2216.32	1.60251
2216.56	-0.270863
2216.8	2.52337
2217.04	-1.21872
2217.28	-1.22596
2217.51	-2.16504
2217.75	-0.301491
2217.99	3.42994
2218.23	-0.310257
2218.47	-4.05085
2218.7	-1.25329
2218.94	1.54733
2219.18	1.54885
2219.42	-0.315987
2219.66	2.49033
2219.9	0.621742
2220.13	3.42598
2220.37	-0.312775
2220.61	3.41906
2220.85	0.607666
2221.09	4.33864
2221.32	2.45898
2221.56	4.31008
2221.8	3.35664
2222.04	-2.26278
2222.27	-3.21055
2222.51	0.512268
2222.75	-1.3615
2222.99	-2.29713
2223.23	-2.29601
2223.46	-0.427055
2223.7	0.50956
2223.94	-0.418545
2224.18	-1.34455
2224.42	-1.33559
2224.65	-3.1978
2224.89	-3.19215
2225.13	0.554382
2225.37	-5.99068
2225.6	-2.24187
2225.84	-1.29797
2226.08	4.32581
2226.32	-0.351944
2226.56	5.27425
2226.79	0.591953
2227.03	-4.08925
2227.27	-3.14876
2227.51	0.603363
2227.74	1.5415
2227.98	1.53942
2228.22	2.47052
2228.46	-1.28951
2228.69	-3.17362
2228.93	-1.30704
2229.17	2.43512
2229.41	1.48948
2229.64	4.29647
2229.88	-0.388332
2230.12	0.556667
2230.36	-1.31318
2230.6	1.50473
2230.83	5.26285
2231.07	-3.17984
2231.31	-1.29784
2231.55	-2.23144
2231.78	-1.28628
2232.02	-1.28261
2232.26	-2.21835
2232.5	-1.27473
2232.73	-3.15113
2232.97	0.613037
2233.21	5.31944
2233.45	-3.14228
2233.68	5.32827
2233.92	0.627865
2234.16	-2.19408
2234.39	3.45355
2234.63	2.50414
2234.87	-0.328819
2235.11	-1.28097
2235.34	-0.353828
2235.58	0.564468
2235.82	-4.155
2236.06	-5.09974
2236.29	-0.401237
2236.53	-0.403889
2236.77	0.534103
2237	-0.409767
2237.24	-5.11559
2237.48	2.41616
2237.72	0.539547
2237.95	4.31879
2238.19	3.39376
2238.43	1.52392
2238.67	-1.2949
2238.9	4.36861
2239.14	-4.10771
2239.38	4.39351
2239.61	4.39197
2239.85	-2.22135
2240.09	-0.346268
2240.33	4.35009
2240.56	4.33215
2240.8	6.20616
2241.04	-4.14939
2241.27	-0.363976
2241.51	2.46451
2241.75	-1.31153
2241.99	1.51799
2242.22	3.40356
2242.46	4.34684
2242.7	-1.31588
2242.93	-4.14718
2243.17	-0.375034
2243.41	3.39418
2243.64	1.49447
2243.88	-4.18067
2244.12	-0.414276
2244.36	-0.420673
2244.59	-6.08643
2244.83	2.40992
2245.07	-2.30084
2245.3	1.49124
2245.54	6.22914
2245.78	-1.32399
2246.01	5.2977
2246.25	1.5221
2246.49	0.581703
2246.72	0.585213
2246.96	-0.360752
2247.2	-0.358242
2247.43	2.48315
2247.67	-3.19488
2247.91	-5.0906
2248.14	0.582806
2248.38	-3.21019
2248.62	-2.27139
2248.85	-2.27901
2249.09	1.49876
2249.33	-0.401203
2249.56	-3.24639
2249.8	-6.0823
2250.04	-5.13531
2250.27	-0.408073
2250.51	-1.36514
2250.75	2.4058
2250.98	5.22872
2251.22	-2.35487
2251.46	0.468861
2251.69	3.29372
2251.93	0.450039
2252.17	0.447376
2252.4	2.33942
2252.64	-0.494308
2252.88	-8.05649
2253.11	2.3606
2253.35	-0.456528
2253.59	-3.28391
2253.82	3.35713
2254.06	1.46979
2254.3	2.42255
2254.53	2.42814
2254.77	-2.31008
2255.01	-2.3135
2255.24	2.4182
2255.48	2.41647
2255.72	0.516216
2255.95	-0.434391
2256.19	-0.436516
2256.42	2.41281
2256.66	-0.427513
2256.9	0.52552
2257.13	4.32517
2257.37	-0.415508
2257.61	-1.36102
2257.84	-2.30716
2258.08	-6.10428
2258.32	-1.35789
2258.55	0.539494
2258.79	0.538769
2259.02	-0.410263
2259.26	1.4926
2259.5	-1.35409
2259.73	2.44747
2259.97	-1.35333
2260.2	1.49958
2260.44	1.50107
2260.68	2.45287
2260.91	-0.398228
2261.15	4.35989
2261.39	-1.33402
2261.62	-0.376286
2261.86	2.47667
2262.1	-3.23297
2262.33	4.38002
2262.57	0.574219
2262.8	2.48129
2263.04	4.39267
2263.28	0.591976
2263.51	-3.20853
2263.75	0.61327
2263.98	-1.27921
2264.22	-0.310318
2264.46	2.56647
2264.69	5.44373
2264.93	-2.18024
2265.16	-4.08195
2265.4	2.60896
2265.64	0.704494
2265.87	0.702892
2266.11	-2.16411
2266.34	-0.260624
2266.58	1.63542
2266.81	-2.19869
2267.05	2.55923
2267.29	-1.27253
2267.52	5.39572
2267.76	-5.10986
2267.99	8.23468
2268.23	1.54321
2268.47	2.48515
2268.7	-2.28834
2268.94	1.5243
2269.17	0.574692
2269.41	-0.37151
2269.65	1.54676
2269.88	-0.35051
2270.12	0.615944
2270.35	-5.09988
2270.59	-1.2674
2270.82	-2.21651
2271.06	2.56511
2271.3	-2.2058
2271.53	0.668163
2271.77	1.62813
2272	-6.97443
2272.24	3.55283
2272.47	1.64248
2272.71	-2.18559
2272.95	0.684284
2273.18	1.6413
2273.42	3.55557
2273.65	1.64221
2273.89	-4.09915
2274.12	-0.27095
2274.36	-2.1849
2274.6	1.64351
2274.83	-4.09918
2275.07	-6.97066
2275.3	-1.22594
2275.54	4.51891
2275.77	3.56284
2276.01	-0.270615
2276.24	0.692139
2276.48	0.702007
2276.72	0.712387
2276.95	-0.236862
2277.18	0.729553
2277.42	0.738842
2277.66	-2.12373
2277.89	1.72966
2278.13	4.62716
2278.36	-3.03332
2278.6	-1.10741
2278.83	-2.06598
2279.07	-1.10664
2279.3	0.810749
2279.54	0.80592
2279.78	-3.04552
2280.01	-1.14822
2280.24	-0.204247
2280.48	-2.13747
2280.72	0.727196
2280.95	-0.242775
2281.19	2.62486
2281.42	-0.257473
2281.66	1.65194
2281.89	2.60426
2282.13	-0.266907
2282.36	0.693981
2282.6	-3.1351
2282.83	-2.16824
2283.07	3.59676
2283.3	2.64838
2283.54	-2.13643
2283.77	0.761387
2284.01	0.783638
2284.24	-4.00112
2284.48	0.82629
2284.71	-3.96971
2284.95	3.72923
2285.19	-1.06958
2285.42	-3.94645
2285.65	2.79271
2285.89	0.868702
2286.12	-1.06711
2286.36	-1.08599
2286.59	-3.97363
2286.83	4.68606
2287.06	-3.00207
2287.3	-2.01859
2287.54	-0.0748901
2287.77	-1.03109
2288	2.82639
2288.24	0.913342
2288.47	-0.0540428
2288.71	-1.02504
2288.94	-1.03259
2289.18	-1.0416
2289.41	-0.093895
2289.65	1.81207
2289.88	2.75631
2290.12	2.73461
2290.35	8.49565
2290.59	-2.0849
2290.82	3.68323
2291.06	3.68433
2291.29	2.73061
2291.53	-4.94988
2291.76	0.837563
2292	0.849026
2292.23	-1.06716
2292.47	-3.94675
2292.7	3.76518
2292.94	-3.92698
2293.17	1.86336
2293.41	1.87265
2293.64	-1.01039
2293.88	1.8867
2294.11	-1.00147
2294.34	0.922882
2294.58	-0.0463181
2294.81	2.83717
2295.05	-1.98898
2295.28	-0.0687065
2295.52	-6.8166
2295.75	4.73345
2295.99	3.76377
2296.22	-2.98093
2296.46	2.78395
2296.69	0.839211
2296.93	1.79922
2297.16	-1.08219
2297.39	5.66151
2297.63	-0.102329
2297.86	-0.0903244
2298.1	8.59132
2298.33	-1.0212
2298.57	-2.93675
2298.8	0.925602
2299.04	3.82829
2299.27	-3.87013
2299.51	-1.93053
2299.74	-4.81467
2299.97	-4.80917
2300.21	1.94379
2300.44	0.98064
2300.68	-1.91325
2300.91	-2.87122
2301.15	2.92758
2301.38	1.00552
2301.61	4.87328
2301.85	3.91319
2302.08	3.91582
2302.32	1.01986
2302.55	-0.913525
2302.79	0.0498047
2303.02	2.94795
2303.25	0.052948
2303.49	-1.87837
2303.72	-2.8426
2303.96	-0.90992
2304.19	-10.5555
2304.43	5.86401
2304.66	0.0813599
2304.89	-6.67085
2305.13	0.0975418
2305.36	-1.82324
2305.6	3.98056
2305.83	-12.4395
2306.07	-1.80605
2306.3	-1.7981
2306.53	0.142662
2306.77	-0.819752
2307	2.08293
2307.24	-0.815449
2307.47	1.1181
2307.7	-5.64967
2307.94	-1.78771
2308.17	1.10965
2308.41	1.10714
2308.64	-1.79327
2308.87	1.10715
2309.11	1.11166
2309.34	1.12145
2309.58	-0.800743
2309.81	2.11384
2310.04	-1.73592
2310.28	-0.756157
2310.51	-1.7165
2310.75	2.15683
2310.98	2.15772
2311.21	1.1874
2311.45	3.11225
2311.68	-3.68077
2311.92	-3.70758
2312.15	-4.68671
2312.38	0.131096
2312.62	1.09155
2312.85	1.08519
2313.08	0.116276
2313.32	2.04786
2313.55	1.0914
2313.79	2.07458
2314.02	-2.73134
2314.25	-1.74907
2314.49	1.16633
2314.72	-0.748798
2314.95	1.2059
2315.19	-5.54542
2315.42	2.2044
2315.66	7.02959
2315.89	2.18347
2316.12	-4.59159
2316.36	-0.734753
2316.59	-2.69035
2316.82	-3.66654
2317.06	-2.70464
2317.29	-3.66848
2317.52	1.16484
2317.76	0.204807
2317.99	3.11864
2318.23	6.99536
2318.46	0.218491
2318.69	4.07576
2318.93	-2.68714
2319.16	-4.62239
2319.39	-2.69656
2319.63	0.194683
2319.86	0.192139
2320.09	-0.773506
2320.33	2.12434
2320.56	6.95343
2320.79	5.99099
2321.03	5.99923
2321.26	3.11479
2321.5	1.19566
2321.73	4.10466
2321.96	2.18758
2322.2	1.23899
2322.43	3.19035
2322.66	4.17353
2322.9	2.24837
2323.13	6.11572
2323.36	9.98818
2323.6	8.06189
2323.83	8.06819
2324.06	8.07508
2324.3	8.0798
2324.53	10.9812
2324.76	16.7828
2325	17.7363
2325.23	13.853
2325.46	16.7315
2325.7	21.5482
2325.93	16.709
2326.16	26.3534
2326.4	32.1322
2326.63	33.0827
2326.86	43.6809
2327.09	53.31
2327.33	70.6501
2327.56	87.0176
2327.79	124.599
2328.03	184.335
2328.26	268.162
2328.49	327.94
2328.73	355.899
2328.96	326.033
2329.19	240.192
2329.43	171.73
2329.66	118.694
2329.89	77.2649
2330.13	54.147
2330.36	43.5675
2330.59	30.0788
2330.82	28.1486
2331.06	27.181
2331.29	19.4768
2331.52	13.7055
2331.76	7.93788
2331.99	6.98635
2332.22	7.00224
2332.46	3.13574
2332.69	5.05407
2332.92	6.01154
2333.16	3.11747
2333.39	6.00111
2333.62	1.18302
2333.85	5.02985
2334.09	2.13946
2334.32	-5.56433
2334.55	3.09007
2334.79	5.96433
2335.02	4.99626
2335.25	-3.66268
2335.48	4.03096
2335.72	3.0682
2335.95	0.187042
2336.18	0.19223
2336.41	-3.65445
2336.65	2.11206
2336.88	-3.65888
2337.11	3.07125
2337.34	3.07079
2337.58	-1.73747
2337.81	-1.73803
2338.04	4.98858
2338.28	-1.7426
2338.51	2.10139
2338.74	0.177811
2338.97	7.86668
2339.21	3.06403
2339.44	-5.58453
2339.67	0.183578
2339.91	1.14419
2340.14	-0.781185
2340.37	-1.74728
2340.6	4.01056
2340.84	1.12021
2341.07	0.149269
2341.3	-1.78421
2341.53	-1.79878
2341.77	0.102837
2342	4.88533
2342.23	1.99868
2342.46	-2.80412
2342.7	0.0653496
2342.93	-0.898701
2343.16	-0.901539
2343.39	1.01466
2343.63	0.0564651
2343.86	1.01257
2344.09	-2.82386
2344.32	1.96918
2344.56	0.055027
2344.79	-1.86106
2345.02	0.0542679
2345.25	1.96757
2345.49	-2.83094
2345.72	0.994072
2345.95	3.85437
2346.18	3.84364
2346.41	0.959488
2346.65	0.95467
2346.88	2.86581
2347.11	-2.88352
2347.34	-1.93156
2347.58	1.89281
2347.81	1.89009
2348.04	-0.0253525
2348.27	-0.981651
2348.5	-0.0202789
2348.74	1.89696
2348.97	0.936882
2349.2	-1.94286
2349.43	6.66393
2349.67	4.72377
2349.9	1.82835
2350.13	1.80021
2350.36	0.811623
2350.59	3.63707
2350.83	4.51948
2351.06	0.596821
2351.29	3.53116
2351.52	1.79454
2351.75	4.71569
2351.99	0.780628
2352.22	5.49335
2352.45	0.721992
2352.68	2.63331
2352.91	-1.21835
2353.15	2.54644
2353.38	-3.20907
2353.61	1.56154
2353.84	-1.30551
2354.07	-0.367027
2354.31	-4.18122
2354.54	0.574081
2354.77	-1.32427
2355	-3.22419
2355.23	0.58036
2355.47	-1.33422
2355.7	4.37215
2355.93	-3.26018
2356.16	-8.03446
2356.39	3.38071
2356.63	-0.450909
2356.86	8.08409
2357.09	2.34803
2357.32	1.37947
2357.55	-0.538132
2357.79	-3.40569
2358.02	-0.568031
2358.25	2.26894
2358.48	0.354885
2358.71	0.34304
2358.94	1.27432
2359.18	-0.639156
2359.41	-0.651119
2359.64	-2.56242
2359.87	3.12177
2360.1	8.80149
2360.33	0.234951
2360.57	0.214012
2360.8	-0.756001
2361.03	0.171734
2361.26	1.09868
2361.49	0.127827
2361.72	2.0014
2361.96	3.87355
2362.19	1.00613
2362.42	-3.75575
2362.65	0.956459
2362.88	-1.90703
2363.11	-1.9283
2363.34	-2.89514
2363.58	-4.80719
2363.81	-1.0397
2364.04	1.78086
2364.27	-2.0221
2364.5	-3.93379
2364.73	1.72087
2364.97	0.754139
