#Acq. time (s)=	30
#Accumulations=	2
#Range (cm-¹)=	1200...2365
#Windows=	3
#Auto scanning=	Off
#Autofocus=	Off
#Macrospot=	Off
#AutoExposure=	Off
#Spike filter=	Multiple accum.
#Delay time (s)=	2
#Binning=	1
#Readout mode=	Signal
#DeNoise=	Off
#ICS correction=	On
#Dark correction=	Off
#Inst. Process=	Off
#Detector Gain=	Best Dynamic
#Detector ADC=	50 kHz HS
#Detector temperature (°C)=	-60.09
#Instrument=	LabRAM HR Evol
#Detector=	SIN-EM FIVIS
#Objective=	x100_VIS_LWD
#Grating=	1800 (450-850nm)
#ND Filter=	100%
#Laser=	532nm_Edge
#Hole=	100.021
#Temperature=	0
#Range=	Visible
#StageXY=	75x50mm Scan+
#StageZ=	Z motor
#X (µm)=	0
#Y (µm)=	0
#Z (µm)=	-18
#Full time(mm:ss)=	3:18
#Project=	21_11_26
#Sample=	BU02Aw
#Site=	
#Title=	BU02aW-A-FF1-FI02-V_1800 (450-850nm)_532nm_Edge_100%_x100_VIS_LWD_H100um_30sX2
#Remark=	
#Date=	26.11.2021 11:26
#Acquired=	26.11.2021 11:26:23
#Base:Fit=	16.12.2021 16:15:35
#Base:Fit=	16.12.2021 16:18:08
#Base:Sub=	16.12.2021 16:18:08
1202.72	4.12017
1203	5.30638
1203.28	1.02444
1203.56	12.8281
1203.84	0.931488
1204.11	7.34901
1204.39	4.09203
1204.67	7.31657
1204.95	-4.50592
1205.23	-2.37491
1205.5	8.33708
1205.78	10.4447
1206.06	1.80925
1206.34	2.83715
1206.61	0.646057
1206.89	8.10397
1207.17	5.90963
1207.45	-2.70429
1207.73	-0.596664
1208	5.79206
1208.28	4.69008
1208.56	4.65446
1208.84	-0.738564
1209.11	-0.779884
1209.39	6.66365
1209.67	5.56046
1209.95	1.25507
1210.23	4.42892
1210.5	-3.09561
1210.78	6.46347
1211.06	4.26762
1211.34	8.48364
1211.61	-0.115318
1211.89	-1.23547
1212.17	2.96954
1212.45	-3.48898
1212.72	1.78652
1213	-2.53224
1213.28	0.605949
1213.56	0.553902
1213.83	1.57093
1214.11	-0.612968
1214.39	3.60776
1214.67	0.375076
1214.94	4.59245
1215.22	1.35487
1215.5	0.243713
1215.78	3.38933
1216.05	8.66047
1216.33	4.33757
1216.61	3.20069
1216.89	0.995041
1217.16	3.04462
1217.44	6.16129
1217.72	-4.53354
1218	-1.4166
1218.27	2.76363
1218.55	-2.6117
1218.83	5.81238
1219.1	-0.616356
1219.38	3.56979
1219.66	-8.16213
1219.94	-2.92015
1220.21	-4.0479
1220.49	1.19744
1220.77	-0.979904
1221.04	2.14114
1221.32	6.31837
1221.6	0.945251
1221.88	-4.42654
1222.15	-1.32533
1222.43	2.82571
1222.71	-1.50348
1222.98	1.57651
1223.26	-0.634537
1223.54	1.38693
1223.81	-3.9897
1224.09	-3.01883
1224.37	-3.10551
1224.65	-1.07391
1224.92	-2.2066
1225.2	-2.27982
1225.48	-4.45728
1225.76	1.82048
1226.03	1.76319
1226.31	-0.40464
1226.59	-3.64213
1226.86	2.62169
1227.14	-2.73691
1227.42	-1.76017
1227.69	-6.08305
1227.97	-1.9983
1228.25	-0.00192261
1228.52	0.942024
1228.8	-1.29904
1229.08	-0.370987
1229.35	-2.54713
1229.63	-5.60361
1229.91	-3.41968
1230.18	3.82771
1230.46	1.57839
1230.74	-1.6778
1231.01	0.366333
1231.29	1.30543
1231.57	-5.21497
1231.84	-4.22273
1232.12	-5.34605
1232.4	0.884995
1232.67	-1.29673
1232.95	-0.319527
1233.23	6.9585
1233.5	1.6263
1233.78	3.65308
1234.06	-3.76852
1234.33	7.72196
1234.61	-2.8495
1234.89	-8.16609
1235.16	-5.07491
1235.44	-3.0396
1235.71	1.09882
1235.99	-1.06773
1236.27	-0.0834732
1236.54	-1.2094
1236.82	-3.39435
1237.1	-3.47894
1237.37	2.73741
1237.65	0.536827
1237.93	1.48651
1238.2	2.43558
1238.48	6.53171
1238.76	2.23272
1239.03	3.18694
1239.31	5.1968
1239.58	-3.27515
1239.86	-2.30798
1240.14	0.758217
1240.41	-3.51076
1240.69	-5.68114
1240.97	-3.65643
1241.24	-2.678
1241.52	-2.7484
1241.79	-0.732117
1242.07	1.27686
1242.35	7.48202
1242.62	3.21843
1242.9	-2.08999
1243.18	12.5211
1243.45	5.12175
1243.73	1.90272
1244	2.87907
1244.28	0.714691
1244.56	4.83418
1244.83	6.85262
1245.11	-2.66166
1245.39	3.53737
1245.66	2.39709
1245.94	6.48705
1246.21	6.38712
1246.49	-2.07121
1246.76	2.03778
1247.04	5.10654
1247.32	6.07993
1247.59	1.81485
1247.87	5.92871
1248.14	-1.47694
1248.42	8.88484
1248.7	7.75124
1248.97	6.63046
1249.25	1.33549
1249.52	7.54733
1249.8	5.37952
1250.08	7.39848
1250.35	3.14602
1250.63	14.5618
1250.9	10.2872
1251.18	11.2434
1251.45	3.84194
1251.73	1.66914
1252.01	10.9881
1252.28	6.72568
1252.56	8.73067
1252.83	5.51433
1253.11	9.604
1253.39	3.25798
1253.66	-2.03486
1253.94	4.15984
1254.21	6.19363
1254.49	5.09921
1254.76	4.00697
1255.04	11.2577
1255.31	4.92676
1255.59	6.95629
1255.87	2.71384
1256.14	6.82165
1256.42	10.9383
1256.69	2.52612
1256.97	3.51836
1257.24	6.59206
1257.52	6.52428
1257.79	9.58163
1258.07	17.8646
1258.35	16.7501
1258.62	30.2526
1258.9	46.8819
1259.17	39.484
1259.45	37.332
1259.72	33.109
1260	14.2735
1260.27	25.7401
1260.55	25.6524
1260.82	24.5233
1261.1	33.8172
1261.37	36.8596
1261.65	49.2985
1261.92	40.9124
1262.2	58.7126
1262.48	61.9733
1262.75	75.6055
1263.02	93.0487
1263.3	105.301
1263.58	131.227
1263.85	163.735
1264.13	177.446
1264.4	183.906
1264.68	187.122
1264.95	198.398
1265.23	186.778
1265.5	144.917
1265.78	111.402
1266.05	83.1022
1266.33	69.4648
1266.6	60.0182
1266.88	44.3088
1267.15	43.2348
1267.43	37.9843
1267.7	29.5987
1267.98	28.534
1268.25	22.2407
1268.53	25.3776
1268.8	21.1774
1269.08	18.0055
1269.35	20.0681
1269.63	20.0321
1269.9	16.8343
1270.18	27.2398
1270.45	17.7339
1270.73	26.041
1271	24.9215
1271.28	26.9496
1271.55	25.8496
1271.83	35.2066
1272.1	18.4276
1272.38	29.9191
1272.65	24.6719
1272.93	17.3374
1273.2	25.7005
1273.47	22.5422
1273.75	25.6719
1274.03	22.5125
1274.3	22.4984
1274.57	26.6697
1274.85	17.1929
1275.12	26.5882
1275.4	21.3036
1275.67	23.3732
1275.95	31.7445
1276.22	30.676
1276.5	15.9697
1276.77	24.3479
1277.05	18.0304
1277.32	37.9607
1277.6	31.6506
1277.87	29.5406
1278.14	26.3783
1278.42	33.7223
1278.69	32.6575
1278.97	34.7588
1279.24	44.21
1279.52	57.8726
1279.79	60.9868
1280.07	58.8381
1280.34	67.202
1280.61	73.4741
1280.89	100.801
1281.16	120.772
1281.44	133.418
1281.71	175.554
1281.99	228.191
1282.26	309.204
1282.53	399.744
1282.81	581.909
1283.08	795.457
1283.36	1111.69
1283.63	1490.11
1283.91	2105.29
1284.18	2656.89
1284.45	3200.82
1284.73	3524.7
1285	3254.52
1285.28	2551.61
1285.55	1818.34
1285.83	1181.74
1286.1	740.598
1286.37	474.322
1286.65	346.871
1286.92	222.528
1287.2	188.81
1287.47	148.764
1287.75	124.498
1288.02	98.1279
1288.29	86.5119
1288.57	73.8617
1288.84	69.6369
1289.12	70.6811
1289.39	55.9489
1289.66	51.7443
1289.94	48.5925
1290.21	44.3897
1290.49	37.021
1290.76	41.2174
1291.03	39.0809
1291.31	30.6322
1291.58	37.9876
1291.86	19.0134
1292.13	30.5799
1292.4	29.5135
1292.68	24.2409
1292.95	24.2213
1293.22	23.1468
1293.5	23.1398
1293.77	27.377
1294.05	14.7642
1294.32	20.0673
1294.59	26.3959
1294.87	12.677
1295.14	22.1504
1295.42	16.8869
1295.69	17.9758
1295.96	18.0233
1296.24	12.8063
1296.51	17.0665
1296.79	22.3548
1297.06	12.8375
1297.33	14.9343
1297.61	19.1378
1297.88	19.111
1298.15	6.40683
1298.43	8.48995
1298.7	8.49644
1298.97	12.7092
1299.25	6.35419
1299.52	9.50578
1299.79	9.48785
1300.07	10.54
1300.34	4.22033
1300.62	9.50716
1300.89	9.50866
1301.16	13.7269
1301.44	7.3881
1301.71	13.7279
1301.98	0.0165558
1302.25	10.5928
1302.53	7.43336
1302.8	6.38144
1303.08	0.0444183
1303.35	10.604
1303.62	1.09116
1303.9	9.52669
1304.17	5.30336
1304.44	5.30953
1304.72	6.37022
1304.99	2.1502
1305.26	-1.02254
1305.54	-2.0872
1305.81	2.12174
1306.08	4.21913
1306.35	4.20433
1306.63	5.24879
1306.9	6.30312
1307.18	5.25631
1307.45	5.27274
1307.72	-1.04419
1308	-3.14555
1308.27	0.0276184
1308.54	-1.01254
1308.81	-3.11661
1309.09	1.11771
1309.36	-0.967468
1309.63	-5.16451
1309.91	3.30095
1310.18	-4.06591
1310.45	2.27661
1310.73	6.50518
1311	1.24242
1311.27	3.37056
1311.55	-1.88734
1311.82	4.46356
1312.09	0.26371
1312.37	9.79501
1312.64	5.60108
1312.91	10.903
1313.18	-0.699371
1313.46	-2.80726
1313.73	3.54115
1314	-5.94955
1314.28	2.50676
1314.55	3.58037
1314.82	0.437531
1315.09	0.464912
1315.37	-0.561028
1315.64	3.69261
1315.91	0.555923
1316.18	7.98106
1316.46	6.9417
1316.73	8.01329
1317	-5.69832
1317.28	4.8819
1317.55	3.84801
1317.82	2.82689
1318.09	2.85822
1318.37	-4.50763
1318.64	-3.42445
1318.91	-6.56813
1319.18	4.02109
1319.46	2.98682
1319.73	-2.27378
1320	1.97393
1320.28	-4.33317
1320.55	3.08891
1320.82	8.39238
1321.09	4.18065
1321.37	-4.26005
1321.64	2.07903
1321.91	-2.14205
1322.18	-6.34951
1322.46	-2.1235
1322.73	0.00350189
1323	4.23925
1323.27	1.0922
1323.55	-3.11171
1323.82	-0.963829
1324.09	11.7233
1324.36	2.26538
1324.64	2.29353
1324.91	-0.837372
1325.18	-5.02605
1325.45	0.283318
1325.73	4.51082
1326	1.34245
1326.27	-3.93923
1326.54	-3.96236
1326.81	-1.84809
1327.09	2.38738
1327.36	2.44971
1327.63	6.75246
1327.9	-0.555222
1328.18	-0.491508
1328.45	-3.58723
1328.72	-4.57557
1328.99	7.08984
1329.27	-2.3614
1329.54	-3.39009
1329.81	8.26047
1330.08	-5.42183
1330.35	1.99373
1330.63	-5.36346
1330.9	4.15147
1331.17	1.00576
1331.44	-7.41333
1331.71	-6.35005
1331.99	3.13413
1332.26	6.30215
1332.53	-3.15603
1332.8	6.32958
1333.07	2.13151
1333.35	-3.11556
1333.62	3.2059
1333.89	2.16985
1334.16	-3.06599
1334.43	3.25476
1334.71	4.32399
1334.98	1.19556
1335.25	-0.878906
1335.52	2.29556
1335.79	-6.07063
1336.07	1.30128
1336.34	8.67198
1336.61	2.41019
1336.88	6.63618
1337.15	-8.00698
1337.43	1.46421
1337.7	-4.78747
1337.97	-11.0397
1338.24	-0.53418
1338.51	0.53968
1338.78	-6.75878
1339.06	-3.58405
1339.33	6.92436
1339.6	-5.59729
1339.87	-2.4069
1340.14	2.87982
1340.42	2.92857
1340.69	6.12041
1340.96	0.933998
1341.23	-0.0675659
1341.5	2.07084
1341.77	1.06558
1342.04	3.19858
1342.32	-7.23529
1342.59	0.124153
1342.86	-1.94131
1343.13	3.3175
1343.4	5.44689
1343.67	2.35209
1343.95	-4.92204
1344.22	1.40206
1344.49	1.45356
1344.76	3.59548
1345.03	3.63821
1345.3	-3.64407
1345.58	-4.65553
1345.85	3.73193
1346.12	1.67247
1346.39	1.69617
1346.66	1.70716
1346.93	-0.354301
1347.2	-4.4992
1347.47	4.91601
1347.75	5.98756
1348.02	9.15181
1348.29	-5.39948
1348.56	1.9427
1348.83	-0.0944443
1349.1	9.32455
1349.37	-0.014473
1349.65	5.23177
1349.92	2.14585
1350.19	0.102722
1350.46	1.18398
1350.73	4.34624
1351	1.25857
1351.27	15.858
1351.54	8.61615
1351.81	0.329369
1352.09	-5.8605
1352.36	-4.76648
1352.63	5.69724
1352.9	1.61051
1353.17	3.77192
1353.44	10.0851
1353.71	8.13333
1353.98	0.972778
1354.25	6.1624
1354.53	1.93267
1354.8	11.2577
1355.07	9.24659
1355.34	12.4284
1355.61	9.3378
1355.88	16.6494
1356.15	5.31087
1356.42	1.21919
1356.69	5.41529
1356.96	5.46514
1357.24	11.7478
1357.51	7.6433
1357.78	1.46045
1358.05	1.50675
1358.32	17.1224
1358.59	4.71
1358.86	13.0565
1359.13	15.1722
1359.4	3.80374
1359.67	18.3712
1359.94	8.04864
1360.22	19.4903
1360.49	16.4123
1360.76	8.15705
1361.03	7.16518
1361.3	7.2186
1361.57	14.5285
1361.84	9.40633
1362.11	17.7479
1362.38	17.7973
1362.65	15.7766
1362.92	14.793
1363.19	5.53235
1363.46	12.8467
1363.73	7.74506
1364	17.1387
1364.28	25.4988
1364.55	28.6668
1364.82	16.2917
1365.09	30.8434
1365.36	25.7086
1365.63	36.1008
1365.9	37.1713
1366.17	28.9294
1366.44	26.899
1366.71	22.7994
1366.98	23.8674
1367.25	26.9966
1367.52	23.9426
1367.79	20.8952
1368.06	19.937
1368.33	32.411
1368.6	21.1096
1368.87	32.5501
1369.15	34.6872
1369.41	56.4715
1369.68	112.38
1369.95	157.911
1370.23	163.117
1370.5	116.64
1370.77	69.1183
1371.04	53.6646
1371.31	33.0436
1371.58	23.7825
1371.85	36.2024
1372.12	27.9664
1372.39	26.9597
1372.66	34.2073
1372.93	36.3048
1373.2	33.2576
1373.47	35.3689
1373.74	32.3274
1374.01	32.3807
1374.28	30.3753
1374.55	31.4626
1374.82	34.6109
1375.09	33.6368
1375.36	32.6578
1375.63	46.1173
1375.9	38.9854
1376.17	45.2286
1376.44	48.3908
1376.71	39.1547
1376.98	39.1921
1377.25	44.3663
1377.52	48.4985
1377.79	46.5205
1378.06	53.8217
1378.33	45.6987
1378.6	53.0343
1378.87	51.1065
1379.14	57.3786
1379.41	64.6559
1379.68	60.5797
1379.95	68.8717
1380.22	70.9683
1380.49	79.2127
1380.76	80.1854
1381.03	79.1519
1381.3	76.0757
1381.57	74.1081
1381.84	84.4187
1382.11	89.5507
1382.38	94.6726
1382.65	99.8029
1382.92	96.7263
1383.19	108.015
1383.46	126.495
1383.73	132.656
1384	144.99
1384.27	164.504
1384.54	174.83
1384.81	181.069
1385.08	230.406
1385.34	270.561
1385.61	325.149
1385.88	405.385
1386.15	533.895
1386.42	686.014
1386.69	1000.51
1386.96	1525.56
1387.23	2354.51
1387.5	3908.56
1387.77	5888.24
1388.04	7292.53
1388.31	7120.74
1388.58	5518.65
1388.85	3490.02
1389.12	2032.28
1389.39	1174.31
1389.66	729.877
1389.93	502.065
1390.2	342.821
1390.46	288.201
1390.73	225.587
1391	176.425
1391.27	155.892
1391.54	144.664
1391.81	131.388
1392.08	115.015
1392.35	93.5226
1392.62	100.72
1392.89	92.5659
1393.16	78.2766
1393.43	73.2066
1393.7	80.4223
1393.97	64.0989
1394.23	75.4099
1394.5	63.1856
1394.77	63.2426
1395.04	58.1862
1395.31	54.1718
1395.58	54.2574
1395.85	60.4783
1396.12	55.4313
1396.39	49.3507
1396.66	54.5231
1396.93	46.3862
1397.2	46.4364
1397.46	41.3638
1397.73	38.3396
1398	47.5996
1398.27	37.4346
1398.54	38.5292
1398.81	46.7905
1399.08	46.8627
1399.35	34.6557
1399.62	37.8075
1399.89	39.9299
1400.16	41.0281
1400.42	40.0679
1400.69	48.3362
1400.96	34.0947
1401.23	43.3873
1401.5	45.4949
1401.77	49.6691
1402.04	38.4665
1402.31	40.6151
1402.58	43.8151
1402.84	47.0234
1403.11	45.0853
1403.38	41.0788
1403.65	46.2918
1403.92	52.5165
1404.19	41.2645
1404.46	45.3709
1404.73	47.503
1404.99	45.5041
1405.26	49.6574
1405.53	45.5975
1405.8	54.8689
1406.07	57.9867
1406.34	66.2305
1406.61	73.4547
1406.87	71.4564
1407.14	99.2003
1407.41	93.1248
1407.68	116.779
1407.95	141.458
1408.22	164.089
1408.49	201.078
1408.76	254.478
1409.02	333.526
1409.29	366.444
1409.56	394.236
1409.83	377.924
1410.1	334.927
1410.37	269.338
1410.63	200.619
1410.9	152.417
1411.17	108.335
1411.44	88.8855
1411.71	74.576
1411.98	60.276
1412.25	48.0394
1412.51	50.1655
1412.78	42.0604
1413.05	47.3157
1413.32	41.3496
1413.59	36.3381
1413.86	39.4013
1414.12	29.0728
1414.39	27.1029
1414.66	34.408
1414.93	29.3806
1415.2	23.2751
1415.47	27.4449
1415.73	23.3989
1416	25.5147
1416.27	15.3141
1416.54	22.5692
1416.81	19.5565
1417.07	15.5161
1417.34	18.6669
1417.61	17.7085
1417.88	22.9141
1418.15	21.9505
1418.42	13.7909
1418.68	21.0462
1418.95	23.1647
1419.22	25.2798
1419.49	18.1464
1419.76	17.1685
1420.02	11.0476
1420.29	17.2543
1420.56	8.05442
1420.83	23.5005
1421.1	18.407
1421.36	19.4762
1421.63	21.5796
1421.9	20.6156
1422.17	17.6151
1422.44	16.6726
1422.7	16.7565
1422.97	15.8286
1423.24	18.0102
1423.51	18.1383
1423.77	15.9508
1424.04	19.9454
1424.31	22.075
1424.58	18.9774
1424.85	20.0588
1425.11	22.1882
1425.38	21.2774
1425.65	23.3954
1425.92	15.2354
1426.19	23.5248
1426.45	22.5488
1426.72	20.5381
1426.99	15.4454
1427.26	10.3542
1427.52	18.587
1427.79	13.4877
1428.06	11.4699
1428.33	16.6329
1428.59	8.49161
1428.86	8.5471
1429.13	8.60595
1429.4	3.5458
1429.67	9.75274
1429.93	6.74472
1430.2	3.73942
1430.47	7.91012
1430.74	12.0786
1431	10.1039
1431.27	19.4209
1431.54	4.10892
1431.81	5.19991
1432.07	8.33228
1432.34	8.37288
1432.61	7.38344
1432.87	8.45163
1433.14	9.50909
1433.41	1.33431
1433.68	10.5828
1433.95	5.48574
1434.21	3.47353
1434.48	8.6388
1434.75	6.67385
1435.01	9.81345
1435.28	7.81872
1435.55	4.79629
1435.82	10.9943
1436.08	11.0424
1436.35	10.0643
1436.62	-0.135227
1436.89	7.08147
1437.15	6.10114
1437.42	11.2673
1437.69	-0.975262
1437.95	0.0924797
1438.22	7.3082
1438.49	7.36176
1438.76	6.39737
1439.02	9.52631
1439.29	8.55379
1439.56	5.53312
1439.82	9.69115
1440.09	7.70627
1440.36	4.69822
1440.63	1.67885
1440.89	6.85862
1441.16	3.83181
1441.43	5.93472
1441.69	5.97801
1441.96	2.93979
1442.23	-0.0932541
1442.49	5.09355
1442.76	4.11772
1443.03	0.0751228
1443.3	3.19163
1443.56	4.25395
1443.83	4.29208
1444.1	3.3076
1444.36	4.3772
1444.63	5.4532
1444.9	0.390671
1445.16	3.52845
1445.43	4.62043
1445.7	4.66159
1445.97	6.75337
1446.23	4.74209
1446.5	4.78276
1446.77	2.77222
1447.03	-0.263855
1447.3	4.90433
1447.57	1.86715
1447.83	2.92982
1448.1	-0.107063
1448.37	1.98751
1448.63	3.06805
1448.9	5.17721
1449.17	3.17393
1449.43	1.16582
1449.7	-0.846138
1449.97	5.34299
1450.23	6.40165
1450.5	-1.76633
1450.77	6.47258
1451.03	2.41117
1451.3	5.52415
1451.57	-1.61204
1451.83	1.49925
1452.1	-0.512878
1452.37	-5.59755
1452.63	3.66313
1452.9	-0.39204
1453.17	1.70185
1453.43	1.75066
1453.7	-0.251709
1453.97	-3.2842
1454.23	5.97629
1454.5	4.98939
1454.77	1.9566
1455.03	-2.10122
1455.3	-3.08672
1455.56	1.04889
1455.83	-3.00805
1456.1	-6.03273
1456.36	-1.88801
1456.63	4.30162
1456.9	-2.83763
1457.16	-0.757576
1457.43	-4.82501
1457.7	0.33316
1457.96	-1.68001
1458.23	1.43001
1458.49	1.46936
1458.76	-7.71009
1459.03	-3.57079
1459.29	4.66672
1459.56	-0.415604
1459.82	4.74683
1460.09	-1.36472
1460.36	0.718712
1460.62	-1.29637
1460.89	6.93181
1461.16	0.817097
1461.42	0.847137
1461.69	3.94904
1461.95	-3.18943
1462.22	-4.18499
1462.49	3.0069
1462.75	-6.17799
1463.02	-0.0134964
1463.28	4.10153
1463.55	1.05564
1463.82	-0.96508
1464.08	-1.95351
1464.35	-2.92392
1464.61	0.205246
1464.88	-4.85727
1465.15	0.321854
1465.41	-2.75519
1465.68	-3.83653
1465.94	-0.78178
1466.21	4.34996
1466.48	0.319515
1466.74	-2.71349
1467.01	4.43969
1467.27	-0.634865
1467.54	2.46498
1467.8	-1.58561
1468.07	5.58514
1468.34	2.55575
1468.6	1.56798
1468.87	-8.60049
1469.13	1.62961
1469.4	-0.382881
1469.67	1.68273
1469.93	8.84155
1470.2	0.70438
1470.46	-1.3121
1470.73	-4.34431
1470.99	-5.33712
1471.26	-1.23364
1471.53	6.94027
1471.79	1.86752
1472.06	-1.16388
1472.32	0.900101
1472.59	2.96558
1472.85	-5.15092
1473.12	-1.04883
1473.39	4.06844
1473.65	-4.05344
1473.92	3.0943
1474.18	-0.953266
1474.45	1.10826
1474.71	4.19092
1474.98	-4.93382
1475.24	1.2059
1475.51	-6.90659
1475.78	-1.78976
1476.04	-0.747623
1476.31	1.30944
1476.57	0.315445
1476.84	-4.74755
1477.1	1.37665
1477.37	-6.74056
1477.63	0.40276
1477.9	-2.62193
1478.16	0.455574
1478.43	1.49402
1478.69	4.56092
1478.96	-0.502426
1479.22	-4.54821
1479.49	-0.464577
1479.76	0.568565
1480.02	4.64699
1480.29	0.5994
1480.55	-3.45401
1480.82	2.64766
1481.08	-3.42524
1481.35	1.66958
1481.61	-1.35702
1481.88	-1.3263
1482.14	-2.30691
1482.41	-5.31668
1482.67	-0.205738
1482.94	0.84322
1483.2	-2.1775
1483.47	-0.115376
1483.73	-0.0868797
1484	3.99999
1484.26	0.976284
1484.53	-0.0359001
1484.79	-0.0408707
1485.06	-3.11313
1485.32	-4.16811
1485.59	1.90173
1485.85	-0.138134
1486.12	2.03349
1486.38	-0.967655
1486.65	-4.97978
1486.91	-0.956028
1487.18	-0.906498
1487.44	-2.9024
1487.71	1.1582
1487.97	-1.87018
1488.24	-0.8419
1488.5	2.20991
1488.77	-1.82918
1489.03	-1.81924
1489.3	0.217228
1489.56	3.26879
1489.83	0.250607
1490.09	-0.743023
1490.36	-2.74521
1490.62	-1.71291
1490.89	-2.70949
1491.15	1.34708
1491.42	-2.68703
1491.68	1.37326
1491.95	-0.630424
1492.21	2.42297
1492.48	2.44581
1492.74	0.442291
1493	-1.56237
1493.27	3.51062
1493.53	-1.52422
1493.8	-2.51887
1494.06	-1.49028
1494.33	-6.52432
1494.59	-2.45831
1494.86	6.66407
1495.12	-3.42879
1495.39	-2.4068
1495.65	-5.43399
1495.92	0.628841
1496.18	2.65204
1496.45	-0.368507
1496.71	-0.35733
1496.97	-1.35491
1497.24	-1.34373
1497.5	3.72017
1497.77	-1.30886
1498.03	1.73359
1498.3	-1.27779
1498.56	-3.27832
1498.82	-3.25994
1499.09	0.795937
1499.35	-3.22195
1499.62	-3.20186
1499.88	2.87592
1500.15	-2.15047
1500.41	5.9446
1500.68	-0.0969009
1500.94	-1.09188
1501.2	3.97023
1501.47	4.98977
1501.73	-2.06978
1502	2.98877
1502.26	-3.05196
1502.52	0.997993
1502.79	-1.00956
1503.05	4.03901
1503.32	3.03466
1503.58	0.0179253
1503.85	3.04844
1504.11	-1.97843
1504.37	-1.95898
1504.64	-1.94213
1504.9	5.13179
1505.17	1.10997
1505.43	0.110474
1505.7	-2.90771
1505.96	-0.891666
1506.22	6.15696
1506.49	1.12952
1506.75	1.14157
1507.02	-2.8725
1507.28	-6.88264
1507.54	-0.821667
1507.81	-1.81392
1508.07	-4.82436
1508.34	-1.79177
1508.6	4.26384
1508.86	-2.77552
1509.13	-3.76885
1509.39	-3.75563
1509.66	0.286621
1509.92	0.298683
1510.18	-0.691311
1510.45	1.33964
1510.71	6.3797
1510.98	2.35069
1511.24	0.335567
1511.5	-1.68102
1511.77	-2.69595
1512.03	-0.697983
1512.29	0.292492
1512.56	0.27837
1512.82	-3.75047
1513.08	-0.738926
1513.35	1.26858
1513.61	3.27704
1513.88	0.271694
1514.14	0.294193
1514.4	0.324398
1514.67	0.339661
1514.93	-0.660439
1515.2	-0.661793
1515.46	1.34258
1515.72	-4.68296
1515.99	-4.68723
1516.25	3.33331
1516.51	6.34012
1516.78	6.34396
1517.04	-1.673
1517.3	0.338276
1517.57	2.35128
1517.83	-3.65465
1518.09	-0.634155
1518.36	-0.616184
1518.62	3.40699
1518.88	6.42861
1519.15	-2.58724
1519.41	-1.57144
1519.67	1.45053
1519.94	-2.55186
1520.2	6.48467
1520.47	-1.53803
1520.73	-4.54293
1520.99	4.4962
1521.26	3.50614
1521.52	5.52538
1521.78	3.5281
1522.05	-1.48351
1522.31	1.52926
1522.57	-2.482
1522.84	-2.48062
1523.1	-0.472694
1523.36	-2.47962
1523.62	-2.48722
1523.89	0.50676
1524.15	0.499866
1524.41	3.50057
1524.68	2.49615
1524.94	0.491535
1525.2	3.50797
1525.47	1.51382
1525.73	0.520344
1525.99	2.53717
1526.26	-2.45621
1526.52	0.56879
1526.78	3.59205
1527.05	2.59964
1527.31	2.604
1527.57	-1.40702
1527.84	4.60827
1528.1	0.600555
1528.36	-4.40846
1528.63	-1.40314
1528.89	0.600216
1529.15	1.60227
1529.41	-1.40044
1529.68	-1.39652
1529.94	-0.393497
1530.2	-4.40256
1530.47	-3.39868
1530.73	-0.385506
1530.99	-1.37256
1531.25	0.645473
1531.52	4.66564
1531.78	0.662792
1532.04	1.66547
1532.31	-2.33723
1532.57	-0.335972
1532.83	5.68576
1533.09	3.69992
1533.36	-4.29807
1533.62	-1.27126
1533.88	-0.257729
1534.15	2.7592
1534.41	3.76522
1534.67	6.77474
1534.94	-5.26282
1535.2	-1.25284
1535.46	3.75994
1535.72	-2.26328
1535.99	2.72633
1536.25	0.709293
1536.51	-2.30439
1536.77	4.69068
1537.04	-5.33648
1537.3	1.65536
1537.56	3.65146
1537.82	-1.35986
1538.09	-1.35707
1538.35	3.63531
1538.61	-1.37815
1538.87	2.61747
1539.14	0.615196
1539.4	3.6305
1539.66	-2.33912
1539.92	-2.30223
1540.19	4.73499
1540.45	3.7579
1540.71	3.78307
1540.97	2.79665
1541.24	-4.21593
1541.5	-2.22885
1541.76	-5.2371
1542.02	-2.24185
1542.29	-4.25644
1542.55	-1.26207
1542.81	1.73083
1543.07	6.72546
1543.34	10.7173
1543.6	-0.304527
1543.86	8.68324
1544.12	2.66376
1544.39	0.666595
1544.65	2.67051
1544.91	4.68279
1545.17	3.69923
1545.43	-0.292015
1545.7	0.729534
1545.96	-0.260632
1546.22	-3.25877
1546.48	0.753498
1546.74	-1.25279
1547.01	-1.25042
1547.27	2.76244
1547.53	-2.24104
1547.79	-0.231964
1548.06	-0.243153
1548.32	-1.27082
1548.58	-0.269939
1548.84	0.733715
1549.1	0.748314
1549.37	-2.30164
1549.63	0.647327
1549.89	1.63494
1550.15	0.663242
1550.42	2.71795
1550.68	1.7948
1550.94	1.85126
1551.2	-5.1315
1551.46	1.86509
1551.73	5.88565
1551.99	3.86549
1552.25	2.84381
1552.51	4.87451
1552.77	2.88704
1553.03	6.89618
1553.3	-1.15388
1553.56	0.815502
1553.82	-3.2067
1554.08	-3.21213
1554.34	0.788296
1554.61	2.77728
1554.87	5.76462
1555.13	5.7431
1555.39	0.72533
1555.65	4.72706
1555.91	-0.283646
1556.18	2.72302
1556.44	6.72884
1556.7	1.71001
1556.96	1.70864
1557.22	1.71002
1557.48	5.71809
1557.75	3.71336
1558.01	2.70646
1558.27	1.69295
1558.53	2.6755
1558.79	3.66092
1559.06	0.63826
1559.32	2.62098
1559.58	-1.39602
1559.84	0.590588
1560.1	-2.42004
1560.36	2.5684
1560.63	-5.43547
1560.89	2.55338
1561.15	-3.44845
1561.41	0.545647
1561.67	-1.45231
1561.93	1.55261
1562.19	4.56359
1562.46	-0.423576
1562.72	1.5743
1562.98	6.56936
1563.24	-0.438419
1563.5	3.56128
1563.76	0.55304
1564.02	0.546894
1564.29	-3.43934
1564.55	-5.42553
1564.81	0.581558
1565.07	1.57553
1565.33	2.5431
1565.59	0.449905
1565.85	-2.66487
1566.11	-4.71826
1566.38	0.461449
1566.64	4.51954
1566.9	1.48935
1567.16	1.45153
1567.42	2.49008
1567.68	1.53304
1567.94	1.51742
1568.2	6.47553
1568.47	1.48002
1568.73	-0.516136
1568.99	4.48353
1569.25	1.47496
1569.51	-1.54645
1569.77	3.43566
1570.03	4.43159
1570.29	0.434628
1570.55	4.42955
1570.82	0.428783
1571.08	-3.57374
1571.34	-0.581715
1571.6	0.409058
1571.86	1.39617
1572.12	0.383984
1572.38	-1.61949
1572.64	-2.62853
1572.9	-0.644791
1573.17	0.34222
1573.43	-0.667423
1573.69	-1.67796
1573.95	2.30292
1574.21	4.29591
1574.47	-0.689377
1574.73	2.31317
1574.99	6.31625
1575.25	0.33289
1575.51	-4.65493
1575.78	3.34385
1576.04	-2.65421
1576.3	-1.66271
1576.56	-0.668705
1576.82	4.31712
1577.08	-0.698921
1577.34	-3.71809
1577.6	-2.74138
1577.86	-2.76251
1578.12	4.20011
1578.38	1.18772
1578.64	-2.81442
1578.9	-3.81876
1579.17	2.15776
1579.43	1.15584
1579.69	-5.82678
1579.95	0.15313
1580.21	1.15303
1580.47	-3.83382
1580.73	2.14576
1580.99	8.122
1581.25	2.12817
1581.51	-4.86329
1581.77	3.10019
1582.03	-1.89827
1582.29	0.0792999
1582.55	-1.92179
1582.81	2.05495
1583.07	-0.94239
1583.33	1.04214
1583.59	-3.94451
1583.85	0.0336342
1584.11	-1.96814
1584.38	1.01474
1584.64	-3.96567
1584.9	3.00523
1585.16	-1.97803
1585.42	-2.97947
1585.68	0.997257
1585.94	-3.98909
1586.2	-3.00253
1586.46	-3.01855
1586.72	-1.0443
1586.98	1.92776
1587.24	0.920677
1587.5	-1.07987
1587.76	-8.05381
1588.02	-0.101501
1588.28	0.888878
1588.54	2.87815
1588.8	2.87936
1589.06	1.88707
1589.32	3.87939
1589.58	0.894924
1589.84	2.88601
1590.1	4.87423
1590.36	-1.10464
1590.62	0.88583
1590.88	2.87859
1591.14	1.88275
1591.4	2.87215
1591.66	1.87095
1591.92	2.85825
1592.18	-1.1351
1592.44	-3.14216
1592.7	0.818439
1592.96	4.78115
1593.22	-0.206337
1593.48	-3.21315
1593.74	4.71522
1594	3.69358
1594.26	3.67456
1594.52	-0.310753
1594.78	0.677555
1595.04	-4.28805
1595.3	0.684235
1595.56	0.686245
1595.82	-1.30604
1596.08	-1.33358
1596.34	-1.33957
1596.6	-0.35136
1596.86	0.63739
1597.12	-3.33864
1597.38	-0.36021
1597.64	-2.34748
1597.9	-0.361183
1598.16	2.61309
1598.42	0.616329
1598.68	-4.36382
1598.94	-3.38841
1599.2	-2.41222
1599.46	2.53638
1599.72	0.537731
1599.98	5.48502
1600.24	-0.481522
1600.5	-0.494656
1600.76	-0.509289
1601.02	-0.526562
1601.28	-1.53819
1601.54	-1.55943
1601.8	2.38155
1602.06	5.33292
1602.32	-2.60361
1602.58	2.33125
1602.84	3.30454
1603.1	6.25464
1603.36	-2.66502
1603.62	1.27703
1603.88	-0.711987
1604.14	-1.70965
1604.4	2.23937
1604.66	-3.69683
1604.92	-4.68887
1605.17	-0.737915
1605.43	4.20251
1605.69	1.23345
1605.95	2.22203
1606.21	-5.68853
1606.47	1.23691
1606.73	0.249878
1606.99	1.24009
1607.25	4.17817
1607.51	-0.758877
1607.77	-2.67554
1608.03	7.8306
1608.29	-5.47397
1608.55	1.05051
1608.81	0.00145721
1609.07	0.353333
1609.32	-6.24933
1609.58	-1.06709
1609.84	-1.33738
1610.1	-1.45508
1610.36	3.49039
1610.62	1.59781
1610.88	0.205402
1611.14	1.65088
1611.4	2.40157
1611.66	-2.09871
1611.92	-2.17363
1612.18	0.613392
1612.44	3.24578
1612.69	-4.35653
1612.95	-1.58883
1613.21	3.79118
1613.47	1.83807
1613.73	0.916817
1613.99	2.93539
1614.25	2.2461
1614.51	-3.0861
1614.77	0.158737
1615.03	-0.177872
1615.29	-4.71725
1615.54	3.37285
1615.8	3.08589
1616.06	1.57703
1616.32	-2.23453
1616.58	0.58057
1616.84	-0.14093
1617.1	2.11162
1617.36	2.94128
1617.62	-3.27443
1617.88	-1.43415
1618.13	-0.168083
1618.39	2.20584
1618.65	-3.15363
1618.91	-0.708115
1619.17	-3.46976
1619.43	2.44821
1619.69	-1.34134
1619.95	2.57774
1620.2	-0.101295
1620.46	2.51282
1620.72	1.4838
1620.98	3.14848
1621.24	2.36419
1621.5	3.29166
1621.76	1.35213
1622.02	1.52965
1622.27	3.09481
1622.53	-0.342678
1622.79	-0.682404
1623.05	1.48331
1623.31	2.83765
1623.57	-2.16839
1623.83	-1.52692
1624.09	1.07322
1624.34	2.32261
1624.6	0.657246
1624.86	-1.45605
1625.12	0.0951614
1625.38	-4.18992
1625.64	-3.71352
1625.9	-1.88459
1626.15	0.83239
1626.41	0.793705
1626.67	0.0371628
1626.93	-0.088665
1627.19	-1.48898
1627.45	0.00726318
1627.7	0.817974
1627.96	1.41123
1628.22	1.10225
1628.48	4.11897
1628.74	2.30206
1629	3.57648
1629.26	1.94344
1629.51	-1.75279
1629.77	-0.298897
1630.03	2.54452
1630.29	0.910202
1630.55	-0.128956
1630.81	-0.053669
1631.06	1.98475
1631.32	0.556297
1631.53	-1.75214
1631.79	1.2075
1632.05	0.228603
1632.31	6.14737
1632.57	0.228489
1632.84	-3.70359
1633.1	1.24833
1633.36	2.21267
1633.62	3.16801
1633.88	3.15904
1634.14	3.16365
1634.4	-0.773125
1634.66	-3.7304
1634.93	0.210758
1635.19	-2.74984
1635.45	4.14507
1635.71	2.16785
1635.97	-0.795731
1636.23	2.15276
1636.49	4.11425
1636.75	1.14931
1637.02	3.10982
1637.28	4.08355
1637.54	1.11697
1637.8	7.01742
1638.06	-1.84832
1638.32	6.02085
1638.58	4.04383
1638.84	2.06868
1639.1	-0.886089
1639.37	2.06482
1639.63	0.0933342
1639.89	2.05945
1640.15	2.0564
1640.41	5.00524
1640.67	3.03617
1640.93	2.05971
1641.19	3.04946
1641.46	1.08012
1641.72	3.04383
1641.98	1.06697
1642.24	-2.8765
1642.5	3.02562
1642.76	0.0682869
1643.02	-5.84186
1643.28	1.04498
1643.54	0.0577164
1643.8	2.02321
1644.06	2.0172
1644.33	-2.91068
1644.59	7.90352
1644.85	5.9266
1645.11	1.00432
1645.37	-3.91251
1645.63	2.98016
1645.89	1.99872
1646.15	-1.93836
1646.41	-2.92859
1646.67	1.98376
1646.93	3.94445
1647.19	-1.9627
1647.46	1.96552
1647.72	-2.95901
1647.98	-0.0142593
1648.24	-2.96671
1648.5	0.9678
1648.76	-0.991535
1649.02	0.98468
1649.28	4.94685
1649.54	0.0342026
1649.8	-2.92554
1650.06	-2.93179
1650.32	6.91019
1650.58	-0.950485
1650.85	2.01528
1651.11	0.0541878
1651.37	4.0042
1651.63	-0.916302
1651.89	1.05671
1652.15	3.02728
1652.41	0.0704651
1652.67	-0.913509
1652.93	-1.90438
1653.19	6.95684
1653.45	5.96807
1653.71	2.02692
1653.97	-0.926884
1654.23	2.03396
1654.49	4.00805
1654.75	4.99556
1655.01	9.92713
1655.27	-0.908184
1655.53	0.0875435
1655.8	0.102177
1656.06	-2.83948
1656.32	-0.854401
1656.57	7.0493
1656.84	3.10619
1657.1	4.09591
1657.36	0.146084
1657.62	0.141819
1657.88	-2.82432
1658.14	4.08076
1658.4	3.09015
1658.66	-0.862076
1658.92	-2.84185
1659.18	2.08354
1659.44	-0.882675
1659.7	5.02711
1659.96	0.0894814
1660.22	-2.87825
1660.48	2.05538
1660.74	0.0907822
1661	1.08538
1661.26	0.108948
1661.52	2.09215
1661.78	-1.84312
1662.04	1.12217
1662.3	-1.83371
1662.56	3.05268
1662.82	2.16695
1663.08	0.244877
1663.34	0.21788
1663.6	-0.775173
1663.86	-2.76281
1664.12	1.08396
1664.38	-0.834515
1664.64	0.166054
1664.9	-4.76507
1665.16	3.16175
1665.42	-0.778423
1665.68	2.13021
1665.94	4.05455
1666.2	5.18492
1666.46	1.2429
1666.72	0.250126
1666.98	3.14279
1667.24	1.99361
1667.5	-1.799
1667.76	-2.79501
1668.02	1.14594
1668.28	2.12893
1668.54	7.05456
1668.8	-0.835014
1669.06	-3.77203
1669.32	-1.76864
1669.58	-4.72472
1669.84	0.216839
1670.1	7.1351
1670.36	-4.7212
1670.62	2.19458
1670.88	0.247406
1671.14	-1.71077
1671.4	5.2055
1671.66	1.24969
1671.92	-4.6805
1672.18	-0.722824
1672.44	0.272152
1672.69	-4.66652
1672.95	2.25509
1673.21	2.25713
1673.47	5.22658
1673.73	2.26557
1673.99	-5.63774
1674.25	5.24586
1674.51	-5.62212
1674.77	3.28723
1675.03	-2.63831
1675.29	1.33076
1675.55	0.351784
1675.81	4.31736
1676.07	1.3519
1676.33	0.364151
1676.59	0.368649
1676.85	-0.615658
1677.11	-4.57047
1677.37	0.380337
1677.63	0.380333
1677.89	0.378616
1678.14	-5.56238
1678.4	2.34602
1678.66	2.33757
1678.92	-3.60218
1679.18	2.32681
1679.44	2.32348
1679.7	-2.62051
1679.96	5.28524
1680.22	-3.61228
1680.48	-0.647823
1680.74	6.26745
1681	1.32468
1681.26	1.32341
1681.52	0.336319
1681.78	1.32669
1682.03	-0.646191
1682.29	-1.63074
1682.55	2.32484
1682.81	-3.5982
1683.07	-1.6208
1683.33	-2.60651
1683.59	-2.60353
1683.85	-0.624233
1684.11	-2.59765
1684.37	2.34192
1684.63	-3.58821
1684.89	-0.62574
1685.14	-4.57454
1685.4	4.315
1685.66	1.35544
1685.92	3.33397
1686.18	-0.611568
1686.44	0.380989
1686.7	-0.598461
1686.96	-0.584351
1687.22	1.40055
1687.48	6.34532
1687.73	-2.5454
1687.99	-0.571373
1688.25	-1.56051
1688.51	-0.573387
1688.77	-0.574574
1689.03	-2.55212
1689.29	-4.53208
1689.55	1.38586
1689.81	2.36784
1690.06	6.30803
1690.32	-5.53584
1690.58	0.383152
1690.84	-1.57368
1691.1	-7.48254
1691.36	-2.54076
1691.62	3.38676
1691.88	-0.550404
1692.13	-0.541401
1692.39	5.38506
1692.65	-0.534767
1692.91	-2.51084
1693.17	1.43106
1693.43	-0.548527
1693.69	-4.5014
1693.95	0.41869
1694.2	4.35569
1694.46	4.3499
1694.72	-2.55283
1694.98	-5.50998
1695.24	-4.52068
1695.5	-1.55779
1695.76	-1.5501
1696.01	-8.43868
1696.27	2.40723
1696.53	-1.52209
1696.79	3.4151
1697.05	0.463314
1697.31	1.44916
1697.57	-2.49611
1697.82	-0.533089
1698.08	3.39797
1698.34	0.438469
1698.6	2.40372
1698.86	-1.53625
1699.12	-1.53748
1699.38	-1.53561
1699.63	3.38827
1699.89	-4.47535
1700.15	0.45052
1700.41	0.456841
1700.67	-2.49844
1700.92	-2.495
1701.18	5.37854
1701.44	-4.45611
1701.7	-2.48729
1701.96	2.42795
1702.22	-2.49313
1702.47	0.453362
1702.73	1.43199
1702.99	-2.50251
1703.25	-1.51684
1703.51	-6.42555
1703.77	2.42054
1704.02	4.38628
1704.28	-0.523186
1704.54	4.39971
1704.8	1.46493
1705.06	-0.492886
1705.32	-3.43719
1705.57	-2.4516
1705.83	-0.480484
1706.09	1.4907
1706.35	-3.42335
1706.61	0.501686
1706.86	0.495983
1707.12	-1.47395
1707.38	4.40916
1707.64	-2.46525
1707.9	-0.509689
1708.16	-0.519039
1708.41	-0.528378
1708.67	-2.49786
1708.93	-7.4073
1709.19	4.338
1709.44	2.37366
1709.7	0.414215
1709.96	-3.4988
1710.22	2.38044
1710.48	-2.50694
1710.73	2.39587
1710.99	-0.530594
1711.25	-5.41298
1711.51	-1.48507
1711.77	-4.41254
1712.02	0.49477
1712.28	-4.39545
1712.54	-0.476311
1712.8	-3.4208
1713.06	-0.496983
1713.31	0.466858
1713.57	-1.50223
1713.83	-5.42305
1714.09	-1.52429
1714.34	-4.45737
1714.6	-3.47952
1714.86	-0.546757
1715.12	-2.49626
1715.38	2.39318
1715.63	2.40881
1715.89	-1.48133
1716.15	2.43348
1716.41	-5.37999
1716.66	-3.42579
1716.92	-1.4754
1717.18	1.44709
1717.44	-1.49194
1717.69	4.34846
1717.95	-1.522
1718.21	0.413479
1718.47	-3.49588
1718.72	0.391998
1718.98	-1.55954
1719.24	-4.47944
1719.5	-2.52606
1719.75	-0.572254
1720.01	1.37918
1720.27	-2.50468
1720.53	-1.52192
1720.78	1.40129
1721.04	1.39927
1721.3	3.33894
1721.56	-6.39449
1721.81	0.413342
1722.07	-1.53584
1722.33	-0.568188
1722.59	-2.51757
1722.84	-2.52218
1723.1	1.3602
1723.36	1.35666
1723.62	-0.58709
1723.87	-1.55653
1724.13	-1.54973
1724.39	-3.48838
1724.64	0.400257
1724.9	-2.5127
1725.16	1.36443
1725.42	1.35196
1725.67	1.3414
1725.93	-2.5479
1726.19	-2.55193
1726.45	2.29515
1726.7	5.21376
1726.96	5.21707
1727.22	-2.53477
1727.47	0.361828
1727.73	2.30515
1727.99	-2.51889
1728.24	0.391758
1728.5	0.390987
1728.76	-0.588318
1729.02	4.18649
1729.27	-4.57584
1729.53	0.230541
1729.79	-5.52575
1730.05	3.1971
1730.3	-1.60607
1730.56	4.16648
1730.82	-0.667244
1731.07	-2.59483
1731.33	-3.50124
1731.59	1.34174
1731.84	3.28327
1732.1	-0.576015
1732.36	4.26075
1732.61	-2.50082
1732.87	-3.46433
1733.13	-1.53144
1733.39	-6.36298
1733.64	-6.36821
1733.9	-1.55148
1734.16	0.366009
1734.41	1.32322
1734.67	0.351151
1734.93	-3.51234
1735.18	0.334808
1735.44	1.29018
1735.7	1.28382
1735.95	0.318436
1736.21	-4.49432
1736.47	-3.5281
1736.72	-1.60015
1736.98	-1.59858
1737.24	0.327175
1737.49	-3.52023
1737.75	2.2528
1738.01	2.25417
1738.26	2.25309
1738.52	-1.59542
1738.78	-0.636292
1739.03	2.24441
1739.29	-0.642162
1739.55	0.312298
1739.8	-2.57856
1740.06	1.2473
1740.32	0.274628
1740.57	0.264004
1740.83	-4.53646
1741.09	-0.705921
1741.34	0.249359
1741.6	1.20436
1741.86	2.15983
1742.11	0.244205
1742.37	-0.710522
1742.63	-1.66281
1742.88	4.08542
1743.14	2.17338
1743.4	-1.65062
1743.65	1.2275
1743.91	1.2305
1744.16	3.14197
1744.42	-4.5127
1744.68	3.14118
1744.93	1.23245
1745.19	2.19675
1745.45	-3.53351
1745.7	0.300468
1745.96	-2.56351
1746.22	5.08943
1746.47	2.21817
1746.73	-2.5666
1746.98	-0.661194
1747.24	-4.48592
1747.5	1.2402
1747.75	-0.673054
1748.01	-0.676315
1748.27	0.280735
1748.52	0.287529
1748.78	0.296135
1749.03	-0.648575
1749.29	-0.637341
1749.55	-0.62392
1749.8	-1.56311
1750.06	0.364304
1750.32	-0.571964
1750.57	-3.41964
1750.83	-2.44633
1751.08	1.38889
1751.34	0.44656
1751.6	3.32398
1751.85	-1.45425
1752.11	-3.37094
1752.36	4.26595
1752.62	-2.42402
1752.88	3.30354
1753.13	4.25445
1753.39	-0.521778
1753.64	3.29425
1753.9	4.24752
1754.15	-4.33893
1754.41	-0.52565
1754.67	1.37877
1754.92	3.28582
1755.18	0.426655
1755.43	-3.38377
1755.69	-1.47546
1755.95	1.38322
1756.2	-0.524891
1756.46	1.3762
1756.71	-2.43808
1756.97	-3.39689
1757.23	-0.548645
1757.48	-2.45726
1757.74	-7.21097
1757.99	-4.35497
1758.25	5.16703
1758.5	-3.37219
1758.76	4.25196
1759.02	-8.10907
1759.27	2.36636
1759.53	2.37484
1759.78	-2.3729
1760.04	0.48896
1760.3	-2.36154
1760.55	-2.35772
1760.81	1.45116
1761.06	0.501915
1761.32	-1.40041
1761.57	2.40163
1761.83	1.44963
1762.08	1.45121
1762.34	2.4057
1762.6	-0.440208
1762.85	-3.27655
1763.11	3.3918
1763.36	0.548092
1763.62	-3.24957
1763.87	0.562889
1764.13	-1.32778
1764.38	1.53777
1764.64	-7.00523
1764.89	1.58181
1765.15	0.645504
1765.4	3.51513
1765.66	-3.13606
1765.92	-4.07749
1766.17	-0.260109
1766.43	-3.1086
1766.68	4.51377
1766.94	0.709263
1767.19	-2.1423
1767.45	-0.23175
1767.7	4.53086
1767.96	-3.08234
1768.21	-2.13015
1768.47	0.726273
1768.73	2.63225
1768.98	1.68469
1769.24	1.67169
1769.49	4.50275
1769.75	-1.21609
1770	1.62386
1770.26	-2.16566
1770.51	-0.247902
1770.77	-0.228664
1771.02	-8.7711
1771.28	-1.15987
1771.53	-4.94164
1771.79	-0.16518
1772.04	0.799068
1772.3	-0.141945
1772.55	1.77543
1772.81	-2.01242
1773.06	-1.0467
1773.32	3.72409
1773.57	0.882282
1773.83	-1.96085
1774.08	4.71387
1774.34	0.91732
1774.59	1.87933
1774.85	-0.967442
1775.1	-3.81044
1775.36	-2.84761
1775.61	-3.78501
1775.87	3.86533
1776.12	6.74531
1776.38	4.85279
1776.63	-1.81158
1776.89	1.05313
1777.14	1.05392
1777.4	2.00545
1777.65	0.101154
1777.91	1.05229
1778.16	0.0978737
1778.42	-4.66615
1778.67	-2.76257
1778.93	3.89896
1779.18	-0.866764
1779.44	4.83609
1779.69	1.02878
1779.95	-1.81933
1780.2	-2.75106
1780.46	1.06568
1780.71	2.02771
1780.97	0.135025
1781.22	0.146488
1781.47	-1.74985
1781.73	0.162861
1781.98	-2.68264
1782.24	3.04375
1782.49	3.05849
1782.75	-1.68631
1783	5.94976
1783.26	0.245026
1783.51	-2.60234
1783.77	4.08215
1784.02	3.14207
1784.28	1.249
1784.53	4.12514
1784.79	1.28314
1785.04	3.20518
1785.29	0.353416
1785.55	1.31384
1785.8	1.31757
1786.06	-1.54317
1786.31	-0.587902
1786.57	1.32688
1786.82	-7.2486
1787.08	2.30549
1787.33	1.36796
1787.58	1.38759
1787.84	-2.40784
1788.09	-1.41907
1788.35	2.44141
1788.6	-2.30494
1788.86	4.42097
1789.11	-3.2234
1789.37	5.41185
1789.62	-1.26842
1789.87	0.665741
1790.13	-2.19733
1790.38	7.39981
1790.64	2.61963
1790.89	1.6673
1791.15	-2.16371
1791.4	0.707169
1791.65	4.51488
1791.91	-0.272633
1792.16	-0.271545
1792.42	6.4385
1792.67	-0.257629
1792.93	0.708389
1793.18	5.5098
1793.43	2.64589
1793.69	1.69473
1793.94	-1.17335
1794.2	3.62916
1794.45	-3.07087
1794.7	0.766594
1794.96	-2.1095
1795.21	-0.174629
1795.47	-0.132645
1795.72	-1.06256
1795.97	-1.04513
1796.23	3.76772
1796.48	-0.0584984
1796.74	-0.0442123
1796.99	2.85217
1797.25	-0.975632
1797.5	2.88219
1797.75	2.89547
1798.01	-1.89915
1798.26	-2.85036
1798.51	0.0433159
1798.77	-0.910347
1799.02	-1.86653
1799.28	1.02047
1799.53	1.02018
1799.78	-2.82753
1800.04	1.97406
1800.29	-1.87364
1800.55	5.81086
1800.8	-1.87591
1801.05	1.96712
1801.31	-5.71532
1801.56	-2.83047
1801.81	4.85821
1802.07	-1.85905
1802.32	1.99109
1802.58	2.00046
1802.83	0.0898323
1803.08	1.0633
1803.34	-0.845013
1803.59	0.130878
1803.84	3.99003
1804.1	-1.77098
1804.35	4.00638
1804.61	2.09359
1804.86	2.10719
1805.11	0.196136
1805.37	0.210979
1805.62	-0.735672
1805.87	-2.64604
1806.13	0.257244
1806.38	-5.51032
1806.64	-1.64556
1806.89	-1.6353
1807.14	-2.59099
1807.4	2.23348
1807.65	-1.61721
1807.9	-1.61309
1808.16	3.21048
1808.41	3.21527
1808.66	2.25652
1808.92	-5.44934
1809.17	1.30359
1809.42	3.23725
1809.68	-0.61335
1809.93	3.24866
1810.18	1.32624
1810.44	5.18817
1810.69	6.15653
1810.94	2.30101
1811.2	3.26619
1811.45	1.34083
1811.7	-1.54889
1811.96	2.31011
1812.21	-3.47029
1812.46	-2.50069
1812.72	-1.52829
1812.97	-0.554207
1813.22	1.38643
1813.48	0.432014
1813.73	2.3676
1813.98	1.4129
1814.24	-3.39871
1814.49	2.40834
1814.74	4.35656
1815	-2.3853
1815.25	1.49106
1815.5	0.535351
1815.76	-0.424099
1816.01	1.51425
1816.26	1.51942
1816.52	6.35777
1816.77	5.39759
1817.02	1.53724
1817.27	2.50385
1817.53	1.53291
1817.78	-0.419151
1818.03	2.46521
1818.29	-3.32464
1818.54	0.549694
1818.79	4.43012
1819.05	2.50792
1819.3	3.47426
1819.55	2.51397
1819.8	0.589176
1820.06	3.49727
1820.31	-0.362904
1820.56	-0.355164
1820.82	-2.28065
1821.07	0.627937
1821.32	-0.332623
1821.58	-4.19363
1821.83	-0.314533
1822.08	-0.305733
1822.33	1.6374
1822.59	-4.16349
1822.84	2.61721
1823.09	-0.28212
1823.34	4.56252
1823.6	2.6273
1823.85	1.65697
1824.1	-4.15346
1824.36	1.65441
1824.61	7.46776
1824.86	3.60217
1825.11	1.67197
1825.37	-2.1945
1825.62	4.59032
1825.87	0.722012
1826.12	3.62981
1826.38	-0.242687
1826.63	1.69661
1826.88	6.54188
1827.14	1.70195
1827.39	7.51793
1827.64	4.6184
1827.89	3.65663
1828.15	-1.1816
1828.4	1.72661
1828.65	2.69469
1828.9	-2.1529
1829.16	3.65373
1829.41	-1.19271
1829.66	-2.16195
1829.91	-0.225723
1830.17	5.58316
1830.42	-3.13698
1830.67	0.731831
1830.92	1.69577
1831.18	7.50551
1831.43	0.734692
1831.68	2.6786
1831.93	-1.18791
1832.19	2.69307
1832.44	-2.14383
1832.69	-4.07478
1832.94	-2.12743
1833.2	0.787209
1833.45	1.75792
1833.7	2.72878
1833.95	2.73379
1834.2	0.797611
1834.46	-0.16835
1834.71	4.66631
1834.96	4.63957
1835.21	5.58275
1835.47	4.59103
1835.72	6.51109
1835.97	5.52942
1836.22	2.62698
1836.48	5.5168
1836.73	5.72827
1836.98	2.80897
1837.23	1.77288
1837.48	9.50267
1837.74	-2.15837
1837.99	-0.250614
1838.24	2.60262
1838.49	3.53846
1838.74	5.46412
1839	-0.255344
1839.25	3.65179
1839.5	4.63893
1839.75	-1.16804
1840	2.7141
1840.26	1.75651
1840.51	3.64848
1840.76	-0.25832
1841.01	2.61513
1841.27	3.5563
1841.52	0.633148
1841.77	2.54299
1842.02	2.52237
1842.27	4.43379
1842.53	-0.408215
1842.78	4.39779
1843.03	3.44118
1843.28	3.43524
1843.53	-0.418625
1843.78	0.544224
1844.04	0.543148
1844.29	-0.427513
1844.54	6.32269
1844.79	4.3988
1845.04	2.46927
1845.3	0.530834
1845.55	-1.39776
1845.8	2.45953
1846.05	2.47845
1846.3	3.46396
1846.55	4.44801
1846.81	3.51604
1847.06	-1.34307
1847.31	4.37771
1847.56	6.21599
1847.81	0.421345
1848.07	-0.542007
1848.32	3.33195
1848.57	5.28056
1848.82	7.17828
1849.07	4.27365
1849.32	1.38485
1849.57	6.18677
1849.83	2.32014
1850.08	2.30282
1850.33	1.32457
1850.58	3.22739
1850.83	1.28828
1851.09	-2.56997
1851.34	7.02529
1851.59	5.0919
1851.84	6.04246
1852.09	3.15395
1852.34	2.18903
1852.59	0.265736
1852.84	6.02486
1853.1	3.14156
1853.35	6.01826
1853.6	0.251514
1853.85	5.04402
1854.1	4.07147
1854.35	5.0143
1854.6	3.07629
1854.86	5.93645
1855.11	4.96665
1855.36	8.79088
1855.61	3.97975
1855.86	6.83464
1856.11	6.82174
1856.36	3.94043
1856.61	4.89263
1856.87	3.93184
1857.12	5.84412
1857.37	8.71203
1857.62	8.70405
1857.87	-3.75413
1858.12	3.89709
1858.37	5.8006
1858.63	-1.87021
1858.88	5.77153
1859.13	7.66938
1859.38	4.7834
1859.63	6.67924
1859.88	2.84225
1860.13	4.74963
1860.38	0.922276
1860.63	3.78996
1860.89	4.75219
1861.14	3.80116
1861.39	3.80498
1861.64	6.68115
1861.89	1.90134
1862.14	5.72814
1862.39	4.76471
1862.64	3.79636
1862.9	7.60799
1863.15	10.4603
1863.4	3.74979
1863.65	8.51379
1863.9	0.852173
1864.15	6.57201
1864.4	9.42423
1864.65	3.6791
1864.9	6.53099
1865.15	5.5609
1865.4	3.63415
1865.66	9.34052
1865.91	2.63969
1866.16	6.43089
1866.41	3.54459
1866.66	4.47141
1866.91	8.25508
1867.16	2.51554
1867.41	3.4424
1867.66	0.565113
1867.91	5.30144
1868.16	10.0418
1868.41	4.3265
1868.67	5.2689
1868.92	4.31441
1869.17	3.36168
1869.42	6.20857
1869.67	4.29966
1869.92	1.43977
1870.17	12.8386
1870.42	4.27618
1870.67	9.97137
1870.92	9.01368
1871.17	9.00727
1871.42	8.05099
1871.67	7.09162
1871.92	6.13013
1872.17	9.9161
1872.42	8.95412
1872.68	10.843
1872.93	12.7264
1873.18	7.96155
1873.43	12.6955
1873.68	2.24503
1873.93	8.88031
1874.18	8.86702
1874.43	6.00425
1874.68	7.88434
1874.93	7.86515
1875.18	7.8455
1875.43	13.5127
1875.68	7.8038
1875.93	11.568
1876.18	9.63617
1876.43	11.5025
1876.68	6.74779
1876.93	11.4589
1877.18	9.55302
1877.43	5.73736
1877.68	6.64428
1877.93	7.52077
1878.18	6.61478
1878.44	14.3875
1878.69	8.61601
1878.93	6.69258
1879.19	12.356
1879.44	14.3004
1879.69	7.69061
1879.94	10.5091
1880.19	6.69794
1880.44	7.63582
1880.69	14.253
1880.94	10.4727
1881.19	8.55994
1881.44	6.65738
1881.69	3.78963
1881.94	9.43302
1882.19	6.56203
1882.44	9.36127
1882.69	8.37769
1882.94	8.33235
1883.19	2.64963
1883.44	7.3201
1883.69	15.2669
1883.94	10.2653
1884.19	11.9933
1884.44	16.7034
1884.69	12.0196
1884.94	2.55599
1885.19	9.16795
1885.44	13.9071
1885.69	7.30439
1885.94	8.2481
1886.19	6.38018
1886.44	12.0518
1886.69	12.0541
1886.94	12.041
1887.19	8.23301
1887.44	10.101
1887.69	13.8547
1887.94	9.11584
1888.19	0.606354
1888.44	7.18521
1888.69	11.8688
1888.94	7.13017
1889.19	7.10549
1889.44	9.9058
1889.69	8.94737
1889.94	7.9966
1890.19	19.2821
1890.44	9.86698
1890.69	12.6974
1890.94	11.7619
1891.19	5.16519
1891.43	9.86498
1891.68	5.14318
1891.94	4.19273
1892.18	12.657
1892.43	14.5294
1892.68	8.86967
1892.93	7.91227
1893.18	6.95165
1893.43	13.5111
1893.68	10.6479
1893.93	6.85163
1894.18	8.71682
1894.43	12.4781
1894.68	8.68951
1894.93	6.79241
1895.18	15.2352
1895.43	6.77369
1895.68	5.83013
1895.93	10.5258
1896.18	3.00642
1896.43	4.88463
1896.68	4.88503
1896.93	8.64799
1897.18	15.2322
1897.42	3.94593
1897.68	6.76435
1897.92	13.3432
1898.17	4.86865
1898.42	5.79768
1898.67	8.60453
1898.92	5.76528
1899.17	11.3854
1899.42	11.3618
1899.67	11.342
1899.92	10.3876
1900.17	8.49263
1900.42	4.71939
1900.67	3.76963
1900.92	7.52017
1901.16	6.57768
1901.41	4.69878
1901.66	11.2799
1901.91	6.58261
1902.16	5.64471
1902.41	2.82725
1902.66	8.47332
1902.91	14.1093
1903.16	6.57037
1903.41	11.2584
1903.66	8.42122
1903.91	5.58641
1904.16	7.45448
1904.41	5.56243
1904.65	0.850857
1904.9	12.122
1905.15	9.28935
1905.4	13.0383
1905.65	13.0283
1905.9	3.61564
1906.15	7.35099
1906.4	6.38338
1906.65	6.36669
1906.9	6.35103
1907.14	8.21446
1907.39	10.0792
1907.64	5.37535
1907.89	4.43009
1908.14	5.36684
1908.39	9.12521
1908.64	12.8786
1908.89	7.23539
1909.14	1.59388
1909.39	7.23116
1909.63	2.5329
1909.88	4.4167
1910.13	7.24453
1910.38	3.48993
1910.63	10.0867
1910.88	9.15368
1911.13	4.44861
1911.38	8.21466
1911.62	5.38483
1911.87	10.0873
1912.12	11.0192
1912.37	4.41199
1912.62	10.0498
1912.87	6.27145
1913.12	4.37788
1913.37	8.13568
1913.61	4.36036
1913.86	10.0108
1914.11	9.07541
1914.36	10.0263
1914.61	6.25869
1914.86	1.54493
1915.11	10.0351
1915.36	9.09325
1915.6	5.31723
1915.85	12.8596
1916.1	4.35556
1916.35	4.34119
1916.6	9.04582
1916.85	4.31076
1917.1	5.23268
1917.34	8.98519
1917.59	13.6811
1917.84	8.95071
1918.09	7.05162
1918.34	3.27192
1918.59	4.21185
1918.83	6.09951
1919.08	5.16059
1919.33	4.22281
1919.58	10.8372
1919.83	2.35244
1920.08	5.19424
1920.33	7.08393
1920.57	1.40659
1920.82	8.0042
1921.07	7.99767
1921.32	8.00178
1921.57	8.95172
1921.81	6.11358
1922.06	8.94782
1922.31	9.88831
1922.56	4.20333
1922.81	9.8629
1923.06	4.1701
1923.31	3.20657
1923.55	11.6991
1923.8	4.12156
1924.05	3.16087
1924.3	5.03307
1924.55	5.01292
1924.79	6.88527
1925.04	9.70666
1925.29	9.69838
1925.54	8.75045
1925.79	3.08127
1926.04	5.92262
1926.28	2.14441
1926.53	2.14685
1926.78	6.88105
1927.03	7.83432
1927.28	6.88864
1927.52	4.99268
1927.77	3.09548
1928.02	6.87963
1928.27	2.13919
1928.52	6.87054
1928.76	11.6006
1929.01	1.17496
1929.26	3.06586
1929.51	4.9589
1929.76	6.85592
1930	10.6557
1930.25	0.225769
1930.5	10.6672
1930.75	5.92527
1931	7.82774
1931.24	4.02337
1931.49	1.16551
1931.74	4.94823
1931.99	6.82875
1932.24	1.11533
1932.48	3.94429
1932.73	5.82369
1932.98	6.75291
1933.23	11.4829
1933.47	6.72076
1933.72	5.76448
1933.97	12.4116
1934.22	2.93658
1934.46	5.80941
1934.71	0.141636
1934.96	4.93089
1935.21	8.76942
1935.46	9.74675
1935.7	5.95063
1935.95	7.86549
1936.2	12.5824
1936.45	2.08123
1936.69	7.78483
1936.94	3.0019
1937.19	4.88527
1937.44	6.76572
1937.68	4.83837
1937.93	9.57612
1938.18	1.93884
1938.43	3.82046
1938.68	3.80868
1938.92	7.62398
1939.17	7.61945
1939.42	9.52146
1939.67	9.51996
1939.91	8.56368
1940.16	1.89247
1940.41	3.78884
1940.66	3.79033
1940.9	5.69854
1941.15	6.67738
1941.4	2.8703
1941.64	6.67609
1941.89	6.65742
1942.14	4.71835
1942.39	2.76791
1942.63	1.82185
1942.88	9.49964
1943.13	3.77305
1943.38	8.53812
1943.62	9.45775
1943.87	5.60349
1944.12	6.52673
1944.37	5.59644
1944.61	4.64226
1944.86	2.73251
1945.11	2.73304
1945.35	7.51058
1945.6	2.73577
1945.85	6.5599
1946.1	7.51673
1946.34	3.69145
1946.59	2.73169
1946.84	-3.96862
1947.09	5.58689
1947.33	5.57415
1947.58	1.7325
1947.83	7.45305
1948.07	1.70273
1948.32	3.60316
1948.57	1.67864
1948.82	6.4436
1949.06	3.56618
1949.31	3.56414
1949.56	3.56328
1949.8	-0.264107
1950.05	6.43591
1950.3	3.56721
1950.54	5.49344
1950.79	5.50714
1951.04	-3.11122
1951.29	4.56622
1951.53	5.5362
1951.78	5.54568
1952.03	-0.208687
1952.27	-0.210545
1952.52	1.70589
1952.77	4.58382
1953.01	-5.99438
1953.26	0.726002
1953.51	2.6488
1953.76	0.70137
1954	2.59097
1954.25	5.42426
1954.49	-1.33173
1954.74	6.29925
1954.99	6.26183
1955.24	-3.33768
1955.48	5.27047
1955.73	3.34927
1955.98	1.43531
1956.22	8.1571
1956.47	-2.36728
1956.72	3.39274
1956.96	-4.28185
1957.21	2.43577
1957.46	1.47596
1957.7	6.27834
1957.95	3.39486
1958.2	-2.37494
1958.44	-6.22609
1958.69	-3.35122
1958.94	4.32907
1959.18	3.35176
1959.43	1.40783
1959.68	3.31263
1959.92	4.25974
1960.17	1.35759
1960.42	-2.50439
1960.66	-0.602623
1960.91	4.1784
1961.16	-1.60391
1961.4	4.13496
1961.65	1.23572
1961.9	4.09764
1962.14	1.20872
1962.39	5.03888
1962.63	2.15001
1962.88	5.97988
1963.13	4.05086
1963.37	3.08139
1963.62	5.95147
1963.87	4.0218
1964.11	0.172657
1964.36	-4.63366
1964.61	5.92267
1964.85	2.06892
1965.1	1.09293
1965.35	2.04245
1965.59	0.108452
1965.84	-0.862434
1966.08	6.81332
1966.33	2.0102
1966.58	2.01033
1966.82	1.04941
1967.07	3.92907
1967.32	2.0019
1967.56	0.0662498
1967.81	1.01616
1968.05	1.00907
1968.3	6.7674
1968.55	0.990055
1968.79	0.977322
1969.04	-0.961651
1969.29	9.59018
1969.53	-0.0451279
1969.78	5.69064
1970.02	0.859703
1970.27	0.834694
1970.52	0.812355
1970.76	3.67246
1971.01	13.2468
1971.25	4.59093
1971.5	0.735756
1971.75	-0.240074
1971.99	0.703434
1972.24	1.65479
1972.48	2.60751
1972.73	-3.15741
1972.98	-2.21025
1973.22	2.57027
1973.47	-0.327541
1973.71	6.36194
1973.96	9.21604
1974.21	5.36202
1974.45	1.51157
1974.7	2.4564
1974.94	-2.3474
1975.19	-0.440094
1975.44	4.34559
1975.68	-1.41129
1975.93	-0.456379
1976.17	1.45691
1976.42	-0.467445
1976.66	4.32032
1976.91	-3.36308
1977.16	2.38111
1977.4	7.16416
1977.65	2.35297
1977.89	0.41729
1978.14	-5.35567
1978.39	-2.49839
1978.63	4.19394
1978.88	4.17649
1979.12	-1.58934
1979.37	-0.642418
1979.61	-2.56928
1979.86	-0.663464
1980.1	1.24428
1980.35	6.02659
1980.6	5.0512
1980.84	-0.720154
1981.09	1.17622
1981.33	-2.67203
1981.58	0.183548
1981.82	-3.66495
1982.07	1.10938
1982.31	4.92718
1982.56	4.91359
1982.81	1.06311
1983.05	1.04299
1983.3	-2.80944
1983.54	-6.66269
1983.79	-0.943493
1984.03	-3.82965
1984.28	4.7646
1984.52	3.7914
1984.77	-0.0511208
1985.02	-0.0667801
1985.26	-1.04278
1985.51	-2.97897
1985.75	0.826805
1986	-1.09576
1986.24	-3.0156
1986.49	-0.152229
1986.73	5.582
1986.98	5.57557
1987.22	-1.13107
1987.47	0.773998
1987.71	-3.0705
1987.96	1.68327
1988.21	-0.256611
1988.45	0.66814
1988.7	-2.23024
1988.94	0.576313
1989.19	-2.30621
1989.43	-0.352448
1989.68	3.23749
1989.92	1.21011
1990.17	-3.36512
1990.41	2.32091
1990.66	-2.99902
1990.9	1.42518
1991.15	-1.58934
1991.39	-2.7651
1991.64	-4.78096
1991.88	-2.14021
1992.13	1.05764
1992.37	0.595974
1992.62	-2.5169
1992.86	2.66895
1993.11	-2.56982
1993.35	-3.40108
1993.6	-3.56543
1993.84	1.12557
1994.09	2.39078
1994.33	0.0161819
1994.58	-2.70904
1994.82	-0.501476
1995.07	1.59824
1995.31	-0.459282
1995.56	-1.75782
1995.8	-0.469673
1996.05	-1.81444
1996.29	3.17792
1996.54	3.73263
1996.78	-4.45671
1997.03	-2.60408
1997.27	0.704075
1997.52	-3.84921
1997.76	-2.14235
1998.01	-1.71438
1998.25	0.344994
1998.5	1.55369
1998.74	0.617809
1998.99	-1.53385
1999.23	-1.59374
1999.48	-0.638584
1999.72	-0.591816
1999.97	2.02396
2000.21	0.886154
2000.46	0.44286
2000.7	-1.16143
2000.95	-1.78446
2001.19	1.16262
2001.43	1.05117
2001.68	1.22506
2001.92	2.83514
2002.17	1.24268
2002.41	-0.896629
2002.66	1.47829
2002.9	1.8157
2003.15	0.041481
2003.39	-0.942875
2003.64	-1.2597
2003.88	-2.46419
2004.13	0.447777
2004.37	-0.940269
2004.61	-2.70514
2004.86	-2.54367
2005.1	-0.157494
2005.35	0.434776
2005.59	-0.869244
2005.84	0.91235
2006.08	-0.745953
2006.33	-0.92411
2006.57	1.42522
2006.81	-1.00833
2007.06	-0.436924
2007.3	0.0506554
2007.55	0.316166
2007.79	0.578098
2008.04	4.38087
2008.28	-0.917149
2008.53	1.46508
2008.77	1.02065
2009.01	-4.90792
2009.26	0.177879
2009.5	0.0587006
2009.75	-1.64785
2009.99	3.69396
2010.24	-0.88282
2010.48	0.381676
2010.73	-2.68798
2010.97	-5.26075
2011.21	-2.09005
2011.46	-0.436413
2011.7	-2.12915
2011.95	2.22017
2012.19	0.389122
2012.43	-2.34991
2012.68	1.40366
2012.92	1.39097
2013.17	1.37131
2013.42	1.34431
2013.67	-0.571556
2013.91	3.16629
2014.16	-1.56194
2014.41	-2.53189
2014.66	-1.62707
2014.9	-3.5358
2015.15	-1.67379
2015.4	-3.5573
2015.64	3.01073
2015.89	-3.56017
2016.14	-3.5632
2016.39	6.74996
2016.63	2.99978
2016.88	1.15136
2017.13	0.210419
2017.37	0.19875
2017.62	3.00148
2017.87	0.161987
2018.11	1.07698
2018.36	-2.70684
2018.61	-6.48898
2018.86	-3.69947
2019.1	-2.78746
2019.35	2.80912
2019.6	0.907082
2019.84	-1.92182
2020.09	2.74631
2020.34	3.67041
2020.58	-1.02214
2020.83	-2.90602
2021.08	4.57595
2021.33	0.82444
2021.57	1.75603
2021.82	-1.99855
2022.07	1.7373
2022.31	-1.08541
2022.56	-2.97351
2022.81	-2.99088
2023.05	0.733215
2023.3	-3.03248
2023.55	-6.793
2023.8	-5.87562
2024.04	-1.21812
2024.29	-0.302147
2024.54	-0.320118
2024.78	1.52397
2025.03	0.563618
2025.27	-1.32914
2025.52	2.38099
2025.77	1.42392
2026.02	-0.464283
2026.26	5.10565
2026.51	2.30511
2026.76	3.25013
2027	-0.457901
2027.25	2.37607
2027.5	1.47901
2027.74	-0.372227
2027.99	-0.386875
2028.23	-2.29684
2028.48	-3.28389
2028.73	-3.42215
2028.98	-1.43473
2029.22	1.55254
2029.47	-1.36776
2029.72	3.35354
2029.96	-3.2935
2030.21	1.31561
2030.45	1.24807
2030.7	1.23754
2030.95	0.255039
2031.19	0.284889
2031.44	0.30788
2031.69	-2.50663
2031.93	-1.58085
2032.18	-4.38622
2032.43	0.286659
2032.67	3.09721
2032.92	0.307629
2033.17	-2.4858
2033.41	4.06149
2033.66	0.32634
2033.91	0.334179
2034.15	0.334221
2034.4	4.03873
2034.64	-0.676556
2034.89	2.99683
2035.14	-3.55479
2035.38	2.99112
2035.63	-1.66554
2035.87	1.15788
2036.12	-0.680809
2036.37	2.14391
2036.61	-4.41263
2036.86	-3.50955
2037.11	3.0284
2037.35	-1.64087
2037.6	3.96176
2037.84	1.14687
2038.09	1.13455
2038.34	-2.61835
2038.58	-4.50174
2038.83	1.09088
2039.08	2.0097
2039.32	3.86252
2039.57	-2.69257
2039.81	-1.77409
2040.06	0.0752258
2040.31	1.92038
2040.55	2.83179
2040.8	-2.78681
2041.04	-0.940174
2041.29	1.83989
2041.54	3.68827
2041.78	-0.0522003
2042.03	2.73436
2042.27	-0.07621
2042.52	-2.88513
2042.77	-3.83402
2043.01	4.54063
2043.26	-2.91999
2043.5	-2.9225
2043.75	-1.05204
2044	3.62365
2044.24	0.841469
2044.49	-5.68792
2044.73	3.63235
2044.98	-0.118382
2045.23	-5.74205
2045.47	0.7304
2045.72	2.65331
2045.96	-0.135166
2046.21	-7.54215
2046.45	-1.86208
2046.7	-2.84623
2046.95	0.83633
2047.19	-0.142391
2047.44	3.58692
2047.68	1.69769
2047.93	-0.216343
2048.17	-4.89473
2048.42	-3.96701
2048.67	-0.241997
2048.91	2.55201
2049.16	-7.70557
2049.4	3.49169
2049.65	-3.03308
2049.89	1.64041
2050.14	-4.88094
2050.39	-2.0732
2050.63	-5.80154
2050.88	-0.195324
2051.12	-3.936
2051.37	-2.07687
2051.61	-3.96129
2051.86	4.42205
2052.11	0.680363
2052.35	5.34406
2052.6	5.34668
2052.84	-4.93029
2053.09	-4.93085
2053.33	2.54436
2053.58	-0.254108
2053.82	-3.98547
2054.07	-2.09859
2054.31	0.710655
2054.56	-0.223778
2054.8	2.57834
2055.05	-1.1707
2055.3	-2.11472
2055.54	-3.0596
2055.79	1.59829
2056.03	-3.08881
2056.28	-5.90196
2056.52	0.63176
2056.77	0.620152
2057.01	-2.19333
2057.26	1.53931
2057.5	-0.333519
2057.75	-0.335289
2058	-1.26966
2058.24	2.47271
2058.49	-1.26578
2058.73	-2.19445
2058.98	-4.06033
2059.22	-0.312382
2059.47	-0.31004
2059.71	0.623566
2059.96	-4.99629
2060.2	5.29727
2060.45	-1.26826
2060.69	4.33404
2060.94	3.38646
2061.18	-5.97223
2061.43	-2.22672
2061.67	3.39005
2061.92	-0.358135
2062.16	-0.362595
2062.41	-2.23896
2062.65	0.568245
2062.9	-3.17767
2063.14	-4.11285
2063.39	0.574326
2063.63	0.577709
2063.88	-7.8546
2064.12	2.45416
2064.37	-2.23311
2064.61	0.577621
2064.86	-1.29661
2065.1	-3.16978
2065.35	1.52558
2065.59	-1.2779
2065.84	-0.330708
2066.08	1.55393
2066.33	2.49812
2066.57	-0.316601
2066.82	-6.89294
2067.06	-5.95431
2067.31	0.620464
2067.55	5.31654
2067.8	0.621555
2068.04	-2.19384
2068.29	4.38626
2068.53	2.50737
2068.78	4.38536
2069.02	3.44859
2069.27	0.623791
2069.51	2.49089
2069.76	3.40964
2070	-0.376984
2070.25	2.42636
2070.49	-0.39127
2070.73	3.38387
2070.98	2.46684
2071.22	1.54961
2071.47	0.600044
2071.71	-1.30142
2071.96	-5.01336
2072.2	-1.23211
2072.45	2.52589
2072.69	0.633533
2072.94	2.51004
2073.18	1.55869
2073.43	0.612034
2073.67	1.54562
2073.92	-3.16462
2074.16	3.42293
2074.4	0.596409
2074.65	-2.22783
2074.89	-7.87478
2075.14	5.32244
2075.38	3.45255
2075.63	4.4155
2075.87	1.61047
2076.12	-1.20631
2076.36	-2.14565
2076.6	1.62671
2076.85	-0.263905
2077.09	3.50134
2077.34	1.59742
2077.58	-3.13749
2077.83	-2.22209
2078.07	1.53931
2078.31	-5.06079
2078.56	1.54787
2078.8	0.604485
2079.05	2.49146
2079.29	0.607338
2079.54	4.39067
2079.78	-1.25324
2080.03	3.47499
2080.27	0.645878
2080.51	-4.07459
2080.76	2.54192
2081	2.53797
2081.25	-0.307194
2081.49	5.35348
2081.74	0.622955
2081.98	-2.21678
2082.22	-1.27864
2082.47	-6.00363
2082.71	0.609779
2082.96	0.608154
2083.2	3.43958
2083.45	3.43399
2083.69	2.48204
2083.93	3.42012
2084.18	3.41555
2084.42	-1.3131
2084.67	3.40643
2084.91	1.51277
2085.15	-1.32516
2085.4	0.560703
2085.64	-5.11415
2085.89	3.38665
2086.13	4.33107
2086.37	1.50517
2086.62	1.51799
2086.86	0.580147
2087.11	0.580917
2087.35	-0.363251
2087.59	-1.30535
2087.84	-3.19762
2088.08	5.31559
2088.32	-1.31271
2088.57	3.41621
2088.81	2.46778
2089.06	1.51971
2089.3	0.571243
2089.54	1.52183
2089.79	-3.20797
2090.03	1.5365
2090.28	4.37888
2090.52	1.53548
2090.76	2.48231
2091.01	-3.20182
2091.25	0.589462
2091.5	2.48634
2091.74	-4.14679
2091.98	2.49763
2092.23	2.50939
2092.47	5.36867
2092.72	-2.20865
2092.96	0.652416
2093.2	1.61197
2093.45	1.6212
2093.69	-5.96972
2093.93	0.689404
2094.18	5.44857
2094.42	0.701717
2094.66	0.700485
2094.91	6.4005
2095.15	-0.261696
2095.39	5.43395
2095.64	0.667332
2095.88	1.60332
2096.13	1.59118
2096.37	3.48064
2096.61	-1.27794
2096.86	3.46558
2097.1	-5.09049
2097.34	-2.25194
2097.59	-7.01449
2097.83	-5.12926
2098.07	-2.28961
2098.32	1.50048
2098.56	3.39193
2098.8	-0.417065
2099.05	1.47688
2099.29	4.31844
2099.53	-3.28174
2099.78	3.35472
2100.02	2.40034
2100.27	-0.450596
2100.51	4.29189
2100.75	-3.30212
2101	4.29206
2101.24	7.15012
2101.48	0.510128
2101.73	-1.38704
2101.97	2.41112
2102.21	-2.34233
2102.45	-1.39815
2102.7	-0.4524
2102.94	1.43964
2103.18	-3.32155
2103.43	3.30968
2103.67	0.451111
2103.92	-2.4026
2104.16	-1.46063
2104.4	-0.514778
2104.64	1.38399
2104.89	-3.35941
2105.13	-0.50745
2105.37	0.445335
2105.62	0.450378
2105.86	-0.492096
2106.1	-7.13888
2106.35	5.21787
2106.59	-0.483978
2106.83	1.41564
2107.08	1.41365
2107.32	-7.1425
2107.56	-0.489796
2107.8	2.35209
2108.05	3.28757
2108.29	-1.48267
2108.53	2.29873
2108.78	5.12858
2109.02	5.11187
2109.26	0.355358
2109.51	-1.54578
2109.75	0.362541
2109.99	-4.38076
2110.23	0.365238
2110.48	2.26096
2110.72	4.15641
2110.96	-0.598042
2111.21	1.29763
2111.45	0.342697
2111.69	9.83381
2111.93	-6.32569
2112.18	2.21231
2112.42	4.10384
2112.66	1.25021
2112.91	-4.44727
2113.15	0.302509
2113.39	-1.59549
2113.63	1.26336
2113.88	-0.630714
2114.12	-2.53106
2114.36	2.21369
2114.61	2.2043
2114.85	1.24836
2115.09	3.14717
2115.33	6.94571
2115.58	0.285423
2115.82	-1.62424
2116.06	2.16807
2116.31	-2.59175
2116.55	-4.50636
2116.79	2.12809
2117.03	-7.37828
2117.28	-2.63701
2117.52	1.15471
2117.76	-1.69647
2118	-0.756725
2118.25	-0.769516
2118.49	1.11567
2118.73	1.09677
2118.97	2.97357
2119.22	-1.78624
2119.46	-0.853416
2119.7	-5.60944
2119.94	0.063488
2120.19	0.0490875
2120.43	2.87954
2120.67	0.029377
2120.91	6.65924
2121.16	0.0305481
2121.4	2.87438
2121.64	-0.909775
2121.88	-0.901539
2122.13	-2.79151
2122.37	-2.78566
2122.61	-3.72974
2122.85	-1.82875
2123.1	3.86844
2123.34	-3.72373
2123.58	-4.67365
2123.82	-0.878857
2124.07	3.8589
2124.31	-1.84748
2124.55	-0.911915
2124.79	-2.82776
2125.03	3.78648
2125.28	-2.88137
2125.52	-0.0658035
2125.76	-1.03606
2126	-2.0038
2126.25	-2.02357
2126.49	8.36877
2126.73	-2.05735
2126.97	1.71106
2127.21	4.53173
2127.46	-3.05
2127.7	-0.222729
2127.94	3.55165
2128.18	3.54336
2128.43	-2.13947
2128.67	4.46921
2128.91	-0.261753
2129.15	0.678917
2129.39	-4.99952
2129.64	6.33363
2129.88	-1.23614
2130.12	1.59177
2130.36	2.52917
2130.6	-2.20391
2130.85	-1.26784
2131.09	1.55648
2131.33	3.43414
2131.57	-0.35738
2131.81	1.51809
2132.06	-4.16019
2132.3	-1.33752
2132.54	-5.12474
2132.78	-1.36374
2133.02	-0.434727
2133.27	4.27325
2133.51	-0.450623
2133.75	1.4338
2133.99	0.487194
2134.23	-0.460983
2134.48	5.19875
2134.72	1.42041
2134.96	2.35761
2135.2	-9.91757
2135.44	-0.486942
2135.68	3.27985
2135.93	-0.505238
2136.17	3.25402
2136.41	1.34535
2136.65	-5.2761
2136.89	-1.51768
2137.14	0.364819
2137.38	-2.4664
2137.62	-0.585052
2137.86	-4.35611
2138.1	1.3079
2138.34	0.355442
2138.59	-6.26461
2138.83	-1.5671
2139.07	3.15083
2139.31	2.22088
2139.55	-2.4878
2139.79	-3.46141
2140.03	3.11137
2140.28	2.15386
2140.52	1.19784
2140.76	2.12749
2141	1.17417
2141.24	-0.719261
2141.49	6.80524
2141.73	4.91719
2141.97	7.72464
2142.21	-5.47398
2142.45	-3.60107
2142.69	3.92396
2142.93	-1.71925
2143.18	-1.71664
2143.42	-0.737144
2143.66	-4.53191
2143.9	-1.84146
2144.14	2.85105
2144.38	0.976406
2144.62	-1.8305
2144.87	3.82476
2145.11	-4.63555
2145.35	3.79197
2145.59	-2.79048
2145.83	0.0270767
2146.07	-0.921837
2146.31	0.94836
2146.55	-0.00205231
2146.8	-0.0121498
2147.04	-2.84197
2147.28	0.906574
2147.52	-0.0465889
2147.76	3.69875
2148	-1.01145
2148.24	0.855946
2148.48	-0.0954247
2148.73	3.64901
2148.97	5.51368
2149.21	2.68214
2149.45	1.72599
2149.69	-0.170021
2149.93	2.61589
2150.17	-0.216568
2150.42	0.700424
2150.66	-2.12869
2150.9	1.60925
2151.14	-3.08414
2151.38	3.47572
2151.62	3.47939
2151.86	-3.08404
2152.1	-3.08212
2152.34	3.48029
2152.58	-3.0834
2152.83	0.654282
2153.07	-0.297131
2153.31	0.624435
2153.55	1.54661
2153.79	-2.21335
2154.03	2.4618
2154.27	-0.364956
2154.51	-3.19476
2154.75	-0.408718
2154.99	0.498394
2155.24	0.470451
2155.48	4.18094
2155.72	-3.32386
2155.96	8.80613
2156.2	1.30795
2156.44	-2.44609
2156.68	-2.45774
2156.92	2.20445
2157.16	-2.47393
2157.4	0.322395
2157.64	-0.614101
2157.89	-2.48173
2158.13	-0.609486
2158.37	4.06615
2158.61	-0.611362
2158.85	-0.618088
2159.09	-4.36565
2159.33	1.2312
2159.57	-0.651218
2159.81	-3.46935
2160.05	0.250481
2160.29	4.90015
2160.53	0.210434
2160.77	3.92577
2161.01	-1.69185
2161.25	1.09535
2161.5	3.88515
2161.74	1.07398
2161.98	0.129181
2162.22	-5.47697
2162.46	1.0467
2162.7	1.04025
2162.94	0.0997849
2163.18	-1.77735
2163.42	-0.85825
2163.66	-1.80349
2163.9	-0.883034
2164.14	-0.895622
2164.38	0.0236168
2164.62	-1.85907
2164.86	1.84781
2165.11	2.76357
2165.35	-3.76307
2165.59	-0.0375633
2165.83	-4.70287
2166.07	-0.981567
2166.31	1.80777
2166.55	0.862614
2166.79	2.71301
2167.03	-1.02848
2167.27	-1.04612
2167.51	0.801479
2167.75	2.64364
2167.99	0.758263
2168.23	-0.205833
2168.47	-3.02635
2168.71	6.25534
2168.95	-3.04964
2169.19	-7.70237
2169.43	-1.19426
2169.67	0.669647
2169.91	-3.97348
2170.15	2.55129
2170.39	-2.08871
2170.63	3.50325
2170.87	-3.94918
2171.11	-3.02855
2171.35	2.54044
2171.59	4.39009
2171.83	8.08158
2172.07	-3.12878
2172.31	-0.366215
2172.56	3.33383
2172.79	-2.2589
2173.04	-4.13155
2173.28	1.43434
2173.51	1.42617
2173.76	-0.440071
2174	1.41481
2174.24	-0.443874
2174.48	1.41256
2174.72	-2.3098
2174.96	6.04819
2175.2	-4.18311
2175.44	3.24366
2175.68	0.444496
2175.92	2.2921
2176.16	3.21189
2176.4	5.98902
2176.64	-3.31467
2176.88	-4.25922
2177.12	3.16142
2177.36	2.22509
2177.6	-5.21246
2177.84	-3.36119
2178.08	-2.44092
2178.32	2.19843
2178.55	-1.53016
2178.8	-0.623447
2179.03	-3.42725
2179.28	1.20592
2179.52	0.272305
2179.75	-3.44846
2180	3.97248
2180.23	2.1076
2180.47	-6.25702
2180.71	-0.695313
2180.95	-0.706455
2181.19	0.210728
2181.43	2.05809
2181.67	3.90337
2181.91	-1.68039
2182.15	-4.47845
2182.39	2.93523
2182.63	-2.64742
2182.87	-1.73249
2183.11	-3.60069
2183.35	2.87434
2183.59	1.92606
2183.83	0.0475464
2184.07	-3.6794
2184.31	0.0115013
2184.55	1.84874
2184.79	1.83823
2185.03	-0.947517
2185.27	-2.80355
2185.51	-0.954048
2185.75	-0.957794
2185.99	0.894745
2186.23	-0.958027
2186.47	5.53467
2186.7	1.82764
2186.95	1.83578
2187.18	-0.939095
2187.42	-1.85941
2187.66	-3.70918
2187.9	0.937664
2188.14	0.932732
2188.38	-0.00998688
2188.62	0.900959
2188.86	-0.0463409
2189.1	-0.994427
2189.34	-4.7273
2189.58	-1.03849
2189.82	-2.91914
2190.06	0.766857
2190.3	-1.10268
2190.54	1.66778
2190.78	-4.82809
2191.01	-2.97781
2191.25	-0.200188
2191.49	-4.84423
2191.73	-0.213409
2191.97	3.49219
2192.21	1.63453
2192.45	0.703796
2192.69	-3.93763
2192.93	-2.08595
2193.17	-2.08532
2193.41	4.41145
2193.65	4.41293
2193.89	3.48973
2194.13	1.64911
2194.36	1.6683
2194.6	-2.9691
2194.84	4.46934
2195.08	-3.90892
2195.32	2.58341
2195.56	-0.219067
2195.8	-1.16537
2196.04	1.60191
2196.28	-3.99551
2196.52	0.620815
2196.76	-1.26189
2197	-0.355698
2197.23	1.481
2197.47	-0.392212
2197.71	0.518757
2197.95	-3.19941
2198.19	-7.84407
2198.43	0.501373
2198.67	-1.34946
2198.91	2.36824
2199.15	-0.408173
2199.38	2.38854
2199.62	4.25498
2199.86	-0.380383
2200.1	-4.08923
2200.34	8.94827
2200.58	2.4601
2200.82	1.54758
2201.06	1.56232
2201.3	1.57075
2201.54	-4.01543
2201.77	0.612602
2202.01	3.33865
2202.25	-1.43742
2202.49	1.25864
2202.73	0.358345
2202.97	1.37605
2203.21	-6.02996
2203.45	5.10733
2203.68	-0.492584
2203.92	1.40791
2204.16	-0.284752
2204.4	-0.361103
2204.64	4.28812
2204.88	4.28969
2205.12	-3.21531
2205.36	-3.27045
2205.59	0.401066
2205.83	1.29116
2206.07	0.344288
2206.31	-0.5928
2206.55	-2.44866
2206.79	4.98439
2207.03	-3.41341
2207.26	-1.55941
2207.5	3.08924
2207.74	-1.5586
2207.98	2.16488
2208.22	4.02959
2208.46	-3.41126
2208.7	3.10654
2208.93	3.1086
2209.17	3.10849
2209.41	0.312325
2209.65	-1.5554
2209.89	3.09292
2210.13	8.67037
2210.36	4.93881
2210.6	0.280731
2210.84	-2.51463
2211.08	-4.37814
2211.32	1.21292
2211.56	-2.51521
2211.8	-1.58265
2212.03	-2.51195
2212.27	-1.57648
2212.51	2.15419
2212.75	-3.44718
2212.99	7.73423
2213.23	2.12299
2213.46	2.10884
2213.7	-1.63888
2213.94	-7.25092
2214.18	-1.66263
2214.42	0.204601
2214.66	-1.6468
2214.89	3.0322
2215.13	5.83028
2215.37	-4.44158
2215.61	-1.64607
2215.85	-3.51943
2216.08	-2.59302
2216.32	-1.66768
2216.56	0.190304
2216.8	2.98114
2217.04	-2.6317
2217.28	6.69328
2217.51	-1.7175
2217.75	6.6785
2217.99	-1.73004
2218.23	-4.53974
2218.47	-0.814297
2218.7	2.91435
2218.94	-4.55867
2219.18	0.109657
2219.42	-2.69122
2219.66	-0.821243
2219.9	1.0452
2220.13	-1.75969
2220.37	1.04109
2220.61	-1.77256
2220.85	-5.52172
2221.09	1.00972
2221.32	3.79877
2221.56	1.90773
2221.8	2.8177
2222.04	3.73003
2222.27	1.84301
2222.51	4.62771
2222.75	-3.78362
2222.99	-0.0541306
2223.23	0.879208
2223.46	1.81308
2223.7	-0.987434
2223.94	0.885742
2224.18	7.43558
2224.42	-0.966248
2224.65	-4.69907
2224.89	1.85249
2225.13	-0.0140572
2225.37	-0.945988
2225.6	-0.00465393
2225.84	1.87562
2226.08	-0.929077
2226.32	-1.86244
2226.56	2.82547
2226.79	-8.418
2227.03	10.3287
2227.27	0.95916
2227.51	3.77291
2227.74	1.89654
2227.98	-5.60992
2228.22	-0.930637
2228.46	0.93232
2228.69	-1.89291
2228.93	6.53325
2229.17	-0.0408478
2229.41	1.8229
2229.64	-2.87265
2229.88	-0.0588913
2230.12	0.885654
2230.36	3.70585
2230.6	-3.79787
2230.83	-0.980389
2231.07	3.71633
2231.31	-2.85112
2231.55	-4.72494
2231.78	0.915791
2232.02	3.73754
2232.26	-0.0173531
2232.5	-0.954132
2232.73	0.929115
2232.97	-3.76978
2233.21	-2.82723
2233.45	-0.00343704
2233.68	0.93985
2233.92	5.648
2234.16	-0.939251
2234.39	3.76568
2234.63	-0.0104179
2234.87	-3.78751
2235.11	4.66794
2235.34	-5.70071
2235.58	-0.0830231
2235.82	0.835136
2236.06	1.76901
2236.29	-1.05746
2236.53	-1.06209
2236.77	1.755
2237	-0.131424
2237.24	-0.136032
2237.48	-1.07114
2237.72	1.7562
2237.95	2.71248
2238.19	-1.0376
2238.43	-2.90833
2238.67	5.58125
2238.9	-3.83712
2239.14	0.886551
2239.38	-0.0433502
2239.61	-1.93379
2239.85	-2.88934
2240.09	1.81224
2240.33	-3.86936
2240.56	-0.118507
2240.8	3.63815
2241.04	3.65656
2241.27	-7.64891
2241.51	3.66895
2241.75	-3.88286
2241.99	-1.99869
2242.22	7.43477
2242.46	1.77044
2242.7	-2.94985
2242.93	-8.61451
2243.17	-2.01217
2243.41	0.810696
2243.64	2.68383
2243.88	-1.10719
2244.12	-0.174801
2244.36	6.42236
2244.59	0.755173
2244.83	1.70092
2245.07	-2.06541
2245.3	7.39556
2245.54	0.797848
2245.78	-4.86627
2246.01	0.809093
2246.25	-2.96762
2246.49	2.71105
2246.72	6.49813
2246.96	1.76773
2247.2	-3.90696
2247.43	-4.85194
2247.67	1.77168
2247.91	-0.125206
2248.14	1.76043
2248.38	-2.98125
2248.62	0.794365
2248.85	-3.94725
2249.09	-7.7417
2249.33	-0.181229
2249.56	-1.13609
2249.8	0.759911
2250.04	0.760647
2250.27	2.64669
2250.51	0.740208
2250.75	-0.223423
2250.98	4.48867
2251.22	-0.261055
2251.46	4.45036
2251.69	0.653606
2251.93	-1.24656
2252.17	5.36773
2252.4	-3.14161
2252.64	1.58939
2252.88	-2.18846
2253.11	0.661816
2253.35	-3.09995
2253.59	-2.13809
2253.82	3.5569
2254.06	0.722504
2254.3	4.51876
2254.53	-3.05925
2254.77	-3.05769
2255.01	-4.95873
2255.24	-4.02139
2255.48	1.66452
2255.72	2.60747
2255.95	2.60415
2256.19	-4.98483
2256.42	-4.98147
2256.66	-1.18265
2256.9	-1.17834
2257.13	-3.07256
2257.37	2.62591
2257.61	1.68105
2257.84	1.68494
2258.08	-3.06152
2258.32	-3.06366
2258.55	-6.86509
2258.79	-5.91723
2259.02	-1.16833
2259.26	1.68447
2259.5	-0.211922
2259.73	-0.21138
2259.97	2.63931
2260.2	-3.06113
2260.44	1.69231
2260.68	3.59456
2260.91	-0.207371
2261.15	-4.95773
2261.39	-3.04346
2261.62	-4.93949
2261.86	0.767017
2262.1	-1.1371
2262.33	-3.04018
2262.57	3.62175
2262.8	-3.98878
2263.04	1.73025
2263.28	-1.11778
2263.51	2.70283
2263.75	-1.09436
2263.98	-2.03214
2264.22	0.846085
2264.46	-2.95177
2264.69	-2.93714
2264.93	2.80185
2265.16	2.81226
2265.4	-1.95433
2265.64	-0.038147
2265.87	-2.90585
2266.11	-0.997055
2266.34	-0.05019
2266.58	-2.93166
2266.81	-3.90304
2267.05	-1.05651
2267.29	-0.118298
2267.52	-0.131508
2267.76	-1.09769
2267.99	1.75145
2268.23	1.73478
2268.47	-0.185886
2268.7	3.62107
2268.94	1.71259
2269.17	-1.14363
2269.41	-4.95051
2269.65	-5.89411
2269.88	-3.97396
2270.12	-3.00653
2270.35	-5.85598
2270.59	1.79997
2270.82	2.76382
2271.06	-4.87703
2271.3	-2.95686
2271.53	0.874203
2271.77	0.878742
2272	-0.0722466
2272.24	-2.93386
2272.47	1.85218
2272.71	4.72075
2272.95	-1.01938
2273.18	-2.93261
2273.42	-1.01837
2273.65	-0.0610428
2273.89	0.896507
2274.12	3.76828
2274.36	-0.0593147
2274.6	-0.0590858
2274.83	1.85595
2275.07	-7.71555
2275.3	-1.9704
2275.54	-0.0547447
2275.77	-2.92557
2276.01	-1.01462
2276.24	-2.9235
2276.48	0.918732
2276.72	-0.984867
2276.95	-0.0160599
2277.18	-2.88182
2277.42	1.92212
2277.66	0.980846
2277.89	-1.87716
2278.13	2.94186
2278.36	0.0854187
2278.6	2.01321
2278.83	-0.865242
2279.07	0.0943489
2279.3	-0.86977
2279.54	2.00625
2279.78	-2.80698
2280.01	2.92573
2280.24	0.98774
2280.48	1.92987
2280.72	0.955742
2280.95	3.81972
2281.19	-0.983913
2281.42	-0.0319633
2281.66	-2.91592
2281.89	-0.0468597
2282.13	3.79269
2282.36	-5.78991
2282.6	-4.82462
2282.83	1.89768
2283.07	2.87008
2283.3	-0.954407
2283.54	0.980461
2283.77	1.00304
2284.01	2.95089
2284.24	3.9369
2284.48	-4.68747
2284.71	-2.75035
2284.95	-0.820713
2285.19	2.07826
2285.42	1.1291
2285.65	4.98278
2285.89	-2.71471
2286.12	4.00868
2286.36	-0.82391
2286.59	-1.78762
2286.83	0.140266
2287.06	-2.7364
2287.3	1.13931
2287.54	-3.65206
2287.77	-0.754704
2288	3.10439
2288.24	-1.69591
2288.47	-1.69968
2288.71	5.03485
2288.94	1.17348
2289.18	2.12621
2289.41	3.0711
2289.65	5.93575
2289.88	8.80034
2290.12	3.96563
2290.35	6.8418
2290.59	3.95201
2290.82	2.03029
2291.06	1.07097
2291.29	-0.842609
2291.53	4.94396
2291.76	4.00369
2292	1.13167
2292.23	-1.74464
2292.47	-1.73393
2292.7	-3.64787
2292.94	-0.744602
2293.17	6.01262
2293.41	-1.68309
2293.64	-0.709778
2293.88	-2.6297
2294.11	-0.697441
2294.34	5.08239
2294.58	0.257984
2294.81	1.21406
2295.05	-1.68568
2295.28	3.12403
2295.52	-1.69823
2295.75	1.18428
2295.99	2.14062
2296.22	-1.71568
2296.46	-4.61452
2296.69	2.10038
2296.93	-1.74937
2297.16	4.03006
2297.39	3.07846
2297.63	0.204254
2297.86	1.18208
2298.1	2.16371
2298.33	5.0762
2298.57	-5.50686
2298.8	-1.64253
2299.04	0.298584
2299.27	0.315777
2299.51	2.25935
2299.74	-0.621323
2299.97	-3.50728
2300.21	0.352844
2300.44	0.355598
2300.68	1.32127
2300.91	1.33069
2301.15	2.30831
2301.38	1.35357
2301.61	8.11911
2301.85	10.0569
2302.08	4.26949
2302.32	-1.52121
2302.55	-0.558323
2302.79	-0.559395
2303.02	-0.555176
2303.25	-0.553619
2303.49	-0.553909
2303.72	3.30839
2303.96	-2.47801
2304.19	-1.50441
2304.43	-3.4225
2304.66	-0.514259
2304.89	4.32349
2305.13	2.40402
2305.36	-1.4453
2305.6	4.36088
2305.83	1.4688
2306.07	-1.42178
2306.3	-2.37768
2306.53	0.531937
2306.77	0.537868
2307	-0.424133
2307.24	-0.421486
2307.47	-1.38643
2307.7	-0.421658
2307.94	-0.425327
2308.17	7.30411
2308.41	1.50458
2308.64	-1.39513
2308.87	1.50673
2309.11	1.51308
2309.34	-3.30597
2309.58	0.572887
2309.81	-2.3091
2310.04	0.613213
2310.28	4.49859
2310.51	-1.2958
2310.75	1.61183
2310.98	4.51612
2311.21	-7.09404
2311.45	-1.29951
2311.68	1.57185
2311.92	1.53774
2312.15	1.52084
2312.38	0.544571
2312.62	-4.28586
2312.85	-0.431248
2313.08	-0.434708
2313.32	4.39287
2313.55	0.544155
2313.79	1.53117
2314.02	-1.33887
2314.25	-0.352242
2314.49	0.634953
2314.72	-0.309734
2314.95	-3.18503
2315.19	-0.260715
2315.42	1.68818
2315.66	1.67673
2315.89	-0.267792
2316.12	4.55875
2316.36	6.47933
2316.59	-1.27927
2316.82	-2.25679
2317.06	1.60196
2317.29	0.639286
2317.52	0.646591
2317.76	8.37964
2317.99	3.57172
2318.23	1.65462
2318.46	-3.19023
2318.69	1.63327
2318.93	2.59523
2319.16	5.48616
2319.39	1.61901
2319.63	0.649448
2319.86	4.50726
2320.09	2.57718
2320.33	7.4063
2320.56	6.44743
2320.79	4.52134
2321.03	6.46169
2321.26	-0.28091
2321.5	4.55971
2321.73	12.3
2321.96	4.59327
2322.2	12.3436
2322.43	6.57145
2322.66	13.3588
2322.9	3.70287
2323.13	15.3046
2323.36	13.3787
2323.6	9.52094
2323.83	9.52905
2324.06	16.3066
2324.3	18.2471
2324.53	22.1159
2324.76	27.9179
2325	25.9678
2325.23	28.8453
2325.46	27.8525
2325.7	30.7341
2325.93	36.5147
2326.16	32.6384
2326.4	47.1026
2326.63	59.6298
2326.86	69.2568
2327.09	96.243
2327.33	110.68
2327.56	149.214
2327.79	223.421
2328.03	324.588
2328.26	451.771
2328.49	562.644
2328.73	577.113
2328.96	522.193
2329.19	387.164
2329.43	280.132
2329.66	185.646
2329.89	129.763
2330.13	98.9388
2330.36	64.2858
2330.59	50.7959
2330.82	46.9379
2331.06	33.4492
2331.29	30.5602
2331.52	21.9019
2331.76	11.3213
2331.99	6.51884
2332.22	12.3191
2332.46	11.3396
2332.69	12.2921
2332.92	4.58061
2333.16	7.46365
2333.39	6.49504
2333.62	8.41505
2333.85	6.48532
2334.09	6.48195
2334.32	3.58861
2334.55	3.58086
2334.79	-0.280304
2335.02	2.59887
2335.25	8.36516
2335.48	1.63344
2335.72	4.51713
2335.95	1.63663
2336.18	3.56622
2336.41	5.48964
2336.65	4.52328
2336.88	3.55957
2337.11	3.55862
2337.34	8.36532
2337.58	-0.289246
2337.81	10.2852
2338.04	1.62907
2338.28	1.6263
2338.51	1.62488
2338.74	-6.06617
2338.97	3.54478
2339.21	-0.296684
2339.44	0.666801
2339.67	3.55103
2339.91	4.51105
2340.14	2.58446
2340.37	3.53862
2340.6	4.48967
2340.84	5.44012
2341.07	-1.29679
2341.3	-0.352051
2341.53	-1.3301
2341.77	-2.31089
2342	3.42859
2342.23	-3.2962
2342.46	5.32466
2342.7	1.47957
2342.93	4.34838
2343.16	9.13705
2343.39	-2.36825
2343.63	2.42441
2343.86	-2.37228
2344.09	3.37549
2344.32	2.41648
2344.56	1.46052
2344.79	-1.41495
2345.02	1.45767
2345.25	7.20351
2345.49	-0.473045
2345.72	3.34901
2345.95	4.2891
2346.18	4.27543
2346.41	-0.527172
2346.65	9.04266
2346.88	-0.539856
2347.11	-3.41828
2347.34	2.31883
2347.58	-0.561264
2347.81	-0.565784
2348.04	3.2617
2348.27	9.00675
2348.5	2.3077
2348.74	2.30857
2348.97	1.34652
2349.2	-0.578423
2349.43	2.28008
2349.67	4.1643
2349.9	-2.56308
2350.13	-0.683083
2350.36	0.233757
2350.59	1.14151
2350.83	2.01404
2351.06	5.68945
2351.29	8.6426
2351.52	5.99319
2351.75	3.18021
2351.99	3.05045
2352.22	1.06799
2352.45	2.97544
2352.68	-3.70609
2352.91	5.79424
2353.15	0.0107002
2353.38	6.63004
2353.61	-4.79379
2353.84	5.67258
2354.07	-1.01466
2354.31	7.55
2354.54	-1.98526
2354.77	-0.0749397
2355	-0.0702438
2355.23	-0.0811234
2355.47	-1.99985
2355.7	-5.82528
2355.93	4.63919
2356.16	5.57443
2356.39	6.50571
2356.63	-2.09399
2356.86	2.62726
2357.09	4.49607
2357.32	-0.283169
2357.55	-0.304375
2357.79	-1.27621
2358.02	-0.345768
2358.25	-6.06894
2358.48	-1.3349
2358.71	1.49903
2358.94	-3.2772
2359.18	-0.445797
2359.41	4.2865
2359.64	2.36946
2359.87	0.44862
2360.1	-2.42452
2360.33	3.24574
2360.57	2.26759
2360.8	2.23875
2361.03	1.2608
2361.26	-3.51138
2361.49	1.20106
2361.72	-3.57007
2361.96	-6.44377
2362.19	-0.788193
2362.42	1.07338
2362.65	-1.80074
2362.88	0.0626259
2363.11	-0.913742
2363.34	-3.78169
2363.58	3.76232
2363.81	1.84366
2364.04	4.65629
2364.27	-1.99292
2364.5	-0.129051
2364.73	-3.94092
2364.97	3.59556
