#Acq. time (s)=	45
#Accumulations=	2
#Range (cm-¹)=	1200...2399
#Windows=	6
#Auto scanning=	Off
#Autofocus=	Off
#Macrospot=	Off
#AutoExposure=	Off
#Spike filter=	Multiple accum.
#Delay time (s)=	2
#Binning=	1
#Readout mode=	Signal
#DeNoise=	Off
#ICS correction=	On
#Dark correction=	Off
#Inst. Process=	Off
#Detector Gain=	Best Dynamic
#Detector ADC=	50 kHz EM
#Detector EM gain=	100
#Detector temperature (°C)=	-60.09
#Instrument=	LabRAM HR Evol
#Detector=	SIN-EM FIVIS
#Objective=	x100_VIS_LWD
#Grating=	1800 (450-850nm)
#ND Filter=	100%
#Laser=	633nm_Edge
#Hole=	49.98
#Temperature=	0
#Range=	Visible
#StageXY=	75x50mm Scan+
#StageZ=	Z motor
#X (µm)=	0
#Y (µm)=	0
#Z (µm)=	4.4
#Full time(mm:ss)=	9:31
#Project=	21_11_22
#Sample=	BU04w
#Site=	
#Title=	BU04w-A-FF3-FI10-V_1800 (450-850nm)_633nm_Edge_100%_x100_VIS_LWD_H50um_45sX2
#Remark=	
#Date=	22.11.2021 11:53
#Acquired=	22.11.2021 11:53:53
#Base:Fit=	16.12.2021 16:15:35
#Base:Fit=	16.12.2021 16:25:17
#Base:Sub=	16.12.2021 16:25:18
1201.04	0.581055
1201.21	2.24948
1201.39	0.7117
1201.56	3.06912
1201.73	-1.61841
1201.9	8.22458
1202.08	4.34897
1202.25	2.32968
1202.42	2.22354
1202.59	2.82901
1202.76	1.27054
1202.94	2.15677
1203.11	6.96448
1203.28	-2.64127
1203.45	-0.521881
1203.62	0.894257
1203.8	2.58511
1203.97	-1.41684
1204.14	0.839508
1204.31	-2.64182
1204.48	-1.34583
1204.66	1.3562
1204.83	-2.12512
1205	1.01147
1205.17	0.544373
1205.34	3.05444
1205.52	3.07977
1205.69	-1.11404
1205.86	3.67825
1206.03	2.75333
1206.2	-2.15753
1206.38	0.175415
1206.55	1.80072
1206.72	2.1044
1206.89	-0.805115
1207.06	-0.533081
1207.24	0.200531
1207.41	1.61377
1207.58	2.56573
1207.75	-3.75226
1207.92	1.2962
1208.09	2.27927
1208.27	-1.23807
1208.44	0.939941
1208.61	3.01431
1208.78	1.7981
1208.95	2.53812
1209.13	1.69449
1209.3	0.545929
1209.47	1.50739
1209.64	5.06702
1209.81	1.58713
1209.98	-1.16183
1210.16	-0.38559
1210.33	-1.39194
1210.5	2.27026
1210.67	1.70325
1210.84	-4.72177
1211.02	-3.84351
1211.19	0.941254
1211.36	0.862457
1211.53	-2.8653
1211.7	1.82486
1211.87	-1.15363
1212.04	0.509552
1212.22	1.01886
1212.39	1.43182
1212.56	-2.52097
1212.73	1.30579
1212.9	1.53918
1213.08	-0.136749
1213.25	2.57431
1213.42	1.51151
1213.59	3.983
1213.76	-1.46521
1213.93	-0.199097
1214.11	-1.87714
1214.28	0.40686
1214.45	-2.45642
1214.62	3.54825
1214.79	1.12549
1214.96	0.983154
1215.13	0.477509
1215.31	0.267151
1215.48	2.43179
1215.65	1.51709
1215.82	-0.805389
1215.99	-1.48026
1216.16	-1.80667
1216.33	-1.70218
1216.51	-1.98615
1216.68	3.21527
1216.85	0.98999
1217.02	-0.16925
1217.19	0.524109
1217.36	-2.27716
1217.54	-0.8815
1217.71	2.11276
1217.88	-0.527252
1218.05	-1.5878
1218.22	2.45157
1218.39	-4.84357
1218.56	-1.26245
1218.74	1.62341
1218.91	-0.197357
1219.08	0.266724
1219.25	2.63812
1219.42	6.72839
1219.59	-0.543915
1219.76	-1.0513
1219.93	1.25607
1220.11	2.93304
1220.28	1.00433
1220.45	0.217621
1220.62	1.0907
1220.79	2.24045
1220.96	1.54388
1221.13	-2.61246
1221.31	-3.37677
1221.48	-3.31918
1221.65	-3.46133
1221.82	-0.138641
1221.99	-0.676514
1222.16	3.38196
1222.33	1.05505
1222.5	0.258881
1222.68	-2.39374
1222.85	-0.448181
1223.02	0.128845
1223.19	2.91693
1223.36	3.91968
1223.53	1.23901
1223.7	0.256134
1223.87	-2.83853
1224.04	-0.0814514
1224.22	-0.587433
1224.39	-3.0437
1224.56	-1.38925
1224.73	2.87946
1224.9	1.35147
1225.07	-3.20517
1225.24	-0.175232
1225.41	0.0539856
1225.59	-4.07382
1225.76	-0.827759
1225.93	2.94995
1226.1	-1.07321
1226.27	-0.453796
1226.44	2.6467
1226.61	2.29813
1226.78	-1.56366
1226.95	-1.09378
1227.12	3.86688
1227.3	-0.120483
1227.47	-0.684021
1227.64	2.38165
1227.81	0.311523
1227.98	0.505371
1228.15	3.22235
1228.32	1.51245
1228.49	0.94931
1228.66	0.597748
1228.84	-1.53079
1229.01	1.44781
1229.18	-3.1481
1229.35	13.158
1229.52	6.58066
1229.69	-1.29251
1229.86	-0.061615
1230.03	-2.26056
1230.2	2.9772
1230.37	-3.13397
1230.54	1.87207
1230.71	1.23392
1230.89	2.31583
1231.06	-3.14844
1231.23	3.88095
1231.4	1.97562
1231.57	4.12259
1231.74	2.56665
1231.91	2.28253
1232.08	-0.00375366
1232.25	2.20212
1232.42	2.74982
1232.59	1.7919
1232.77	4.24875
1232.94	3.98022
1233.11	2.54471
1233.28	0.657806
1233.45	-1.49112
1233.62	0.838867
1233.79	-0.0597534
1233.96	2.4935
1234.13	3.20981
1234.3	3.88889
1234.47	1.52527
1234.64	7.34775
1234.81	1.52255
1234.99	5.92456
1235.16	1.12939
1235.33	0.876221
1235.5	5.09366
1235.67	8.17929
1235.84	5.93176
1236.01	0.756317
1236.18	5.16559
1236.35	4.23892
1236.52	6.1329
1236.69	2.9039
1236.86	0.756866
1237.03	3.15442
1237.2	4.59204
1237.37	1.98914
1237.54	4.76251
1237.72	0.833282
1237.89	4.41388
1238.06	2.63724
1238.23	-2.51489
1238.4	1.63977
1238.57	5.70572
1238.74	2.4411
1238.91	4.29337
1239.08	3.06027
1239.25	-0.673157
1239.42	2.76071
1239.59	0.370911
1239.76	-0.512878
1239.93	1.07718
1240.1	3.7471
1240.27	4.88986
1240.44	4.58475
1240.61	4.62662
1240.79	3.43787
1240.96	3.31818
1241.13	3.42038
1241.3	6.63516
1241.47	3.6196
1241.64	0.792328
1241.81	6.14285
1241.98	1.68161
1242.15	2.21249
1242.32	0.713776
1242.49	3.34744
1242.66	1.18668
1242.83	5.2966
1243	-1.46075
1243.17	0.502594
1243.34	6.51434
1243.51	8.26358
1243.68	4.95877
1243.85	7.11426
1244.02	2.27512
1244.19	1.88324
1244.36	7.32477
1244.53	7.14688
1244.7	8.55609
1244.87	0.987701
1245.05	2.16205
1245.21	3.80548
1245.39	8.90518
1245.55	5.42075
1245.73	6.34232
1245.9	3.20151
1246.07	5.31073
1246.24	3.7059
1246.41	2.47772
1246.58	5.95694
1246.75	9.61749
1246.92	9.75516
1247.09	6.59186
1247.26	4.60065
1247.43	1.93076
1247.6	6.28192
1247.77	6.11008
1247.94	7.83896
1248.11	5.85522
1248.28	6.01547
1248.45	4.99274
1248.62	6.1369
1248.79	4.35861
1248.96	5.68344
1249.13	5.30402
1249.3	5.0058
1249.47	4.13849
1249.64	3.9306
1249.81	7.05173
1249.98	8.2767
1250.15	6.2352
1250.32	3.37094
1250.49	4.7005
1250.66	3.90991
1250.83	5.41992
1251	4.07779
1251.17	6.71564
1251.34	3.58817
1251.51	4.63388
1251.68	7.22751
1251.85	5.26154
1252.02	6.25415
1252.19	4.12292
1252.36	3.11484
1252.53	8.7258
1252.7	6.27472
1252.87	2.1431
1253.04	5.0686
1253.21	4.47141
1253.38	5.61725
1253.55	1.24753
1253.72	6.86386
1253.89	5.45044
1254.06	6.96243
1254.23	4.92786
1254.4	7.11731
1254.57	6.87549
1254.74	8.04001
1254.91	6.44641
1255.08	2.82483
1255.25	6.75516
1255.42	4.63019
1255.59	4.79306
1255.76	1.67563
1255.93	5.0968
1256.1	2.45889
1256.27	7.16348
1256.44	4.6434
1256.61	3.26617
1256.78	5.75061
1256.95	6.76996
1257.12	2.10876
1257.29	8.50513
1257.46	3.34503
1257.63	8.2597
1257.8	6.50372
1257.97	6.31784
1258.13	5.23273
1258.31	17.2471
1258.47	9.87137
1258.64	4.94196
1258.81	11.6839
1258.98	4.56171
1259.15	5.82639
1259.32	10.1205
1259.49	2.51965
1259.66	3.08597
1259.83	7.05594
1260	3.94318
1260.17	8.35321
1260.34	2.57932
1260.51	6.66846
1260.68	6.73111
1260.85	4.50864
1261.02	9.4614
1261.19	7.61514
1261.36	9.43033
1261.53	7.1239
1261.7	9.63153
1261.87	5.27924
1262.04	7.01254
1262.21	9.15237
1262.38	5.61392
1262.55	4.30576
1262.72	7.64542
1262.89	4.39655
1263.05	5.47464
1263.22	5.53384
1263.39	11.1051
1263.56	13.0732
1263.73	18.41
1263.9	11.1104
1264.07	9.73016
1264.24	6.92374
1264.41	14.0451
1264.58	4.50378
1264.75	5.6662
1264.92	9.99545
1265.09	11.1702
1265.26	7.77536
1265.43	7.83411
1265.6	6.84155
1265.77	5.76132
1265.94	10.9644
1266.11	7.03354
1266.27	7.20337
1266.44	3.79077
1266.61	11.41
1266.78	8.41794
1266.95	5.36618
1267.12	4.82309
1267.29	5.71078
1267.46	4.06107
1267.63	6.36667
1267.8	3.53253
1267.97	6.36243
1268.14	1.25278
1268.31	7.33023
1268.48	7.30591
1268.65	10.2952
1268.81	8.09564
1268.98	2.16446
1269.15	3.90112
1269.32	6.82141
1269.49	6.78665
1269.66	3.64026
1269.83	8.0163
1270	2.82193
1270.17	5.59192
1270.34	3.57413
1270.51	6.6351
1270.68	1.90735
1270.85	6.07242
1271.01	-0.300079
1271.18	5.03333
1271.35	6.78522
1271.52	4.53296
1271.69	4.71967
1271.86	6.38452
1272.03	3.50879
1272.2	6.71545
1272.37	4.25677
1272.54	7.56253
1272.71	4.8511
1272.88	2.01529
1273.04	9.72385
1273.21	5.19287
1273.38	3.88437
1273.55	4.28799
1273.72	8.48779
1273.89	7.87775
1274.06	10.415
1274.23	4.58417
1274.4	3.7359
1274.57	4.27048
1274.74	4.86334
1274.9	4.00174
1275.07	5.25446
1275.24	6.83548
1275.41	5.79523
1275.58	8.44269
1275.75	6.28561
1275.92	3.01559
1276.09	8.38779
1276.26	4.05545
1276.42	1.21573
1276.59	11.1356
1276.76	6.69049
1276.93	3.88773
1277.1	2.99622
1277.27	5.02408
1277.44	2.91122
1277.61	5.28271
1277.78	3.54257
1277.95	10.4525
1278.11	1.9949
1278.28	2.89505
1278.45	4.15433
1278.62	3.17899
1278.79	4.03186
1278.96	5.15137
1279.13	3.70511
1279.3	5.54309
1279.46	7.3656
1279.63	8.36807
1279.8	5.27121
1279.97	7.27255
1280.14	5.48572
1280.31	2.89816
1280.48	5.68167
1280.65	8.60181
1280.82	6.2774
1280.98	6.87149
1281.15	9.3298
1281.32	6.65274
1281.49	9.69846
1281.66	8.17966
1281.83	17.8466
1282	18.0483
1282.17	12.4568
1282.33	14.8543
1282.5	24.2552
1282.67	28.8161
1282.84	40.2372
1283.01	36.8127
1283.18	51.1147
1283.35	50.4977
1283.52	73.0695
1283.68	95.1833
1283.85	119.164
1284.02	158.166
1284.19	164.269
1284.36	150.18
1284.53	149.403
1284.7	97.3749
1284.86	85.4968
1285.03	48.9339
1285.2	38.3824
1285.37	30.8575
1285.54	16.6537
1285.71	19.7421
1285.88	11.6788
1286.04	5.85986
1286.21	10.7569
1286.38	9.39893
1286.55	13.5944
1286.72	8.90598
1286.89	10.1654
1287.06	15.1321
1287.22	4.76678
1287.39	4.29987
1287.56	11.5413
1287.73	7.85522
1287.9	1.13702
1288.07	5.16824
1288.24	4.9696
1288.4	6.44669
1288.57	1.28589
1288.74	1.33453
1288.91	0.900635
1289.08	-0.588867
1289.25	2.78592
1289.41	5.07761
1289.58	5.77847
1289.75	4.58112
1289.92	2.52924
1290.09	4.70837
1290.26	5.89832
1290.42	2.6969
1290.59	5.82092
1290.76	4.13174
1290.93	0.380829
1291.1	-1.9469
1291.27	0.868347
1291.44	1.81708
1291.6	4.03464
1291.77	0.654053
1291.94	-2.07175
1292.11	6.41705
1292.28	1.25378
1292.44	-0.456482
1292.61	1.84866
1292.78	1.39285
1292.95	2.60941
1293.12	1.98972
1293.29	2.87177
1293.45	-3.07761
1293.62	-1.77908
1293.79	3.18301
1293.96	1.74316
1294.13	5.18924
1294.29	-3.62897
1294.46	-1.97824
1294.63	3.95837
1294.8	1.88812
1294.97	5.35373
1295.14	-0.822418
1295.3	0.535706
1295.47	1.17694
1295.64	-0.840515
1295.81	0.846985
1295.98	1.39905
1296.14	-1.68207
1296.31	-1.97153
1296.48	-2.69379
1296.65	2.93155
1296.82	1.38919
1296.99	1.76532
1297.15	-2.41397
1297.32	3.24536
1297.49	-0.199646
1297.66	-1.41815
1297.83	-3.31277
1297.99	-0.119293
1298.16	4.44601
1298.33	1.55594
1298.5	1.76953
1298.67	2.19708
1298.83	3.09995
1299	-2.11893
1299.17	0.285858
1299.34	-4.60864
1299.51	0.573944
1299.67	-4.76486
1299.84	-2.3139
1300.01	4.15079
1300.18	7.99496
1300.35	-1.40698
1300.51	6.25845
1300.68	-4.00925
1300.85	1.5097
1301.02	-1.16428
1301.19	6.97464
1301.35	7.53842
1301.52	2.78613
1301.69	-2.25842
1301.86	2.57925
1302.03	-1.18069
1302.19	5.57498
1302.36	4.58539
1302.53	-4.16125
1302.7	0.323334
1302.86	-1.22751
1303.03	0.58316
1303.2	2.57605
1303.37	4.72217
1303.54	-0.00582886
1303.7	0.443481
1303.87	-5.46085
1304.04	1.13739
1304.21	5.31427
1304.37	1.03061
1304.54	2.83035
1304.71	1.61044
1304.88	-2.84021
1305.05	1.22452
1305.21	-2.21152
1305.38	0.943542
1305.55	-1.29623
1305.72	-2.6459
1305.88	-2.74835
1306.05	3.56708
1306.22	-0.374451
1306.39	-1.65741
1306.55	-0.729034
1306.72	-1.44785
1306.89	0.47345
1307.06	-3.72656
1307.23	0.493225
1307.39	2.48096
1307.56	1.28659
1307.73	0.30658
1307.9	-0.100983
1308.06	0.568909
1308.23	2.31201
1308.4	-1.04544
1308.57	-1.20377
1308.73	-1.87479
1308.9	0.967621
1309.07	0.31131
1309.24	-2.56671
1309.41	3.5513
1309.57	3.76251
1309.74	-1.82245
1309.91	2.66037
1310.07	-3.61282
1310.24	1.43597
1310.41	-3.7002
1310.58	9.71237
1310.75	-3.07056
1310.91	2.97531
1311.08	10.3875
1311.25	-2.37985
1311.42	1.81604
1311.58	0.068573
1311.75	-0.93454
1311.92	0.18222
1312.08	0.838989
1312.25	0.787659
1312.42	-1.13361
1312.59	-1.62567
1312.75	-1.37167
1312.92	-0.140106
1313.09	1.742
1313.26	-0.55423
1313.42	0.762604
1313.59	-0.546265
1313.76	-1.57733
1313.93	-2.20285
1314.09	4.28696
1314.26	-1.86993
1314.43	-1.16779
1314.6	4.03278
1314.76	-2.15738
1314.93	-1.04172
1315.1	-1.59674
1315.27	-2.31064
1315.43	3.5683
1315.6	-0.600067
1315.77	-1.18668
1315.93	0.408722
1316.1	-0.0368958
1316.27	-0.421265
1316.44	-1.2941
1316.6	-0.893707
1316.77	-0.845032
1316.94	0.594147
1317.1	2.27072
1317.27	-0.95459
1317.44	1.85806
1317.61	0.673981
1317.77	-1.18991
1317.94	3.79828
1318.11	3.62042
1318.28	2.62997
1318.44	0.795868
1318.61	-0.735138
1318.78	-4.6853
1318.94	-0.501007
1319.11	-0.451965
1319.28	0.735291
1319.45	2.39865
1319.61	-0.149078
1319.78	-2.88657
1319.95	2.03986
1320.11	-1.03244
1320.28	-2.71896
1320.45	0.737854
1320.62	1.07074
1320.78	1.16858
1320.95	3.99451
1321.12	-2.36404
1321.28	8.65067
1321.45	0.387543
1321.62	1.55264
1321.78	0.0834656
1321.95	-2.1687
1322.12	2.26492
1322.29	3.4162
1322.45	3.49362
1322.62	-1.49771
1322.79	-0.363068
1322.95	-0.260498
1323.12	1.70392
1323.29	2.52512
1323.45	2.43338
1323.62	1.3902
1323.79	1.8653
1323.96	6.35455
1324.12	1.94479
1324.29	0.989319
1324.46	0.160645
1324.62	-1.0386
1324.79	4.35089
1324.96	-0.148407
1325.12	-0.359222
1325.29	-1.59409
1325.46	3.3685
1325.62	1.34766
1325.79	-0.346924
1325.96	0.0645752
1326.13	2.48004
1326.29	-1.32684
1326.46	3.73148
1326.63	2.70349
1326.79	3.92786
1326.96	0.66687
1327.13	2.86169
1327.29	6.32471
1327.46	5.6492
1327.63	2.78729
1327.79	0.18512
1327.96	-0.542969
1328.13	3.92691
1328.29	7.95938
1328.46	2.73132
1328.63	-1.78137
1328.79	2.14182
1328.96	4.15411
1329.13	2.39832
1329.29	1.87833
1329.46	4.41205
1329.63	-1.13696
1329.79	3.55383
1329.96	5.09784
1330.13	4.49911
1330.3	4.0257
1330.46	2.2171
1330.63	5.49863
1330.8	3.00385
1330.96	0.507416
1331.13	3.67361
1331.29	0.0809021
1331.46	-1.65097
1331.63	-1.65292
1331.79	2.07529
1331.96	4.18121
1332.13	3.69632
1332.29	3.68524
1332.46	-1.02173
1332.63	1.34363
1332.79	-0.260437
1332.96	1.27136
1333.13	4.0267
1333.29	3.80032
1333.46	4.90567
1333.63	5.15472
1333.79	3.55554
1333.96	1.65213
1334.13	5.42648
1334.29	3.54614
1334.46	0.883728
1334.63	4.19052
1334.79	13.6243
1334.96	2.31494
1335.13	2.54074
1335.29	6.57098
1335.46	5.85553
1335.62	2.36053
1335.79	6.85208
1335.96	6.91907
1336.12	7.78546
1336.29	0.580261
1336.46	-0.668854
1336.62	5.54175
1336.79	5.00336
1336.96	5.79507
1337.12	3.93393
1337.29	2.01495
1337.46	3.9097
1337.62	2.6196
1337.79	0.76886
1337.95	2.3768
1338.12	5.18753
1338.29	7.70428
1338.45	4.02484
1338.62	2.20505
1338.79	6.31931
1338.95	2.26923
1339.12	2.24173
1339.29	2.70035
1339.45	3.79877
1339.62	5.43298
1339.78	4.44119
1339.95	0.578766
1340.12	1.75397
1340.28	2.43008
1340.45	5.33435
1340.62	7.02301
1340.78	7.85126
1340.95	2.69641
1341.11	2.1727
1341.28	3.52188
1341.45	8.3439
1341.61	11.0884
1341.78	5.12106
1341.94	9.49081
1342.11	4.69342
1342.28	5.90036
1342.44	8.93668
1342.61	5.53281
1342.78	7.62796
1342.94	6.74826
1343.11	6.75211
1343.27	4.84277
1343.44	4.92999
1343.61	8.93356
1343.77	9.86264
1343.94	10.9536
1344.1	1.88205
1344.27	9.24377
1344.44	6.08002
1344.6	8.17902
1344.77	10.4792
1344.93	4.15961
1345.1	4.1582
1345.27	8.66998
1345.43	2.47641
1345.6	9.82147
1345.77	2.8407
1345.93	6.52939
1346.1	2.2128
1346.26	2.57907
1346.43	5.31464
1346.6	3.70908
1346.76	6.03793
1346.93	6.03528
1347.09	3.8862
1347.26	2.8147
1347.42	4.32483
1347.59	6.11322
1347.76	21.5751
1347.92	6.36844
1348.09	7.90924
1348.25	2.58972
1348.42	3.60214
1348.59	4.70804
1348.75	7.31955
1348.92	3.09515
1349.08	4.69781
1349.25	6.98581
1349.42	4.32919
1349.58	6.52444
1349.75	2.79834
1349.91	5.64355
1350.08	7.37704
1350.25	9.82272
1350.41	5.18405
1350.58	8.68073
1350.74	2.98123
1350.91	7.07571
1351.07	5.40643
1351.24	3.75769
1351.41	3.60748
1351.57	5.5134
1351.74	15.6537
1351.9	6.26102
1352.07	8.80234
1352.23	12.3974
1352.4	6.37042
1352.57	5.4563
1352.73	5.6106
1352.9	6.39075
1353.06	3.73633
1353.23	7.70105
1353.39	8.27402
1353.56	6.89978
1353.73	8.41479
1353.89	5.84378
1354.06	2.59991
1354.22	9.0473
1354.39	3.31317
1354.55	6.35971
1354.72	8.49783
1354.88	5.86304
1355.05	9.19928
1355.22	7.99557
1355.38	2.34995
1355.55	7.60245
1355.71	5.97037
1355.88	10.2094
1356.04	5.01697
1356.21	5.67886
1356.38	9.95886
1356.54	7.42651
1356.71	2.93271
1356.87	7.23245
1357.04	7.83383
1357.2	8.46945
1357.37	11.2335
1357.53	6.1665
1357.7	7.32477
1357.87	7.75253
1358.03	7.45349
1358.2	5.4812
1358.36	3.74509
1358.53	2.23566
1358.69	2.1217
1358.86	5.70306
1359.02	6.65613
1359.19	6.38593
1359.35	5.70584
1359.52	4.74631
1359.69	3.7796
1359.85	17.3336
1360.02	7.14319
1360.18	3.77563
1360.35	6.79376
1360.51	6.02344
1360.68	6.55051
1360.84	6.14713
1361.01	7.53854
1361.17	7.85742
1361.34	6.01337
1361.5	6.5802
1361.67	5.46371
1361.84	8.08047
1362	6.54584
1362.17	5.8364
1362.33	7.93658
1362.5	8.30811
1362.66	11.2991
1362.83	8.51114
1362.99	8.69174
1363.16	4.66101
1363.32	10.306
1363.49	5.61292
1363.65	5.16711
1363.82	7.90033
1363.98	8.70502
1364.15	6.53235
1364.31	12.2425
1364.48	7.13922
1364.64	9.6756
1364.81	5.68738
1364.98	10.9221
1365.14	8.19385
1365.31	9.23636
1365.47	10.944
1365.64	4.24734
1365.8	5.18411
1365.97	10.2842
1366.13	9.31995
1366.3	8.9559
1366.46	7.17166
1366.63	3.6456
1366.79	3.50394
1366.96	5.60901
1367.12	8.18399
1367.29	5.4039
1367.45	7.88834
1367.62	7.02319
1367.78	9.42981
1367.95	9.45297
1368.11	5.71478
1368.28	5.28583
1368.44	7.73828
1368.61	5.79465
1368.77	7.93115
1368.94	5.12924
1369.1	8.56555
1369.27	13.6033
1369.43	17.0584
1369.6	12.4756
1369.76	12.2034
1369.93	11.0262
1370.09	10.7286
1370.26	3.62772
1370.42	8.43414
1370.59	10.8137
1370.75	6.46185
1370.92	6.98279
1371.08	7.88406
1371.25	7.63708
1371.41	11.3569
1371.58	10.6187
1371.74	5.19278
1371.91	10.3697
1372.07	5.41235
1372.24	19.5721
1372.4	14.469
1372.57	6.24704
1372.73	8.30826
1372.9	3.20374
1373.06	8.89063
1373.23	6.94019
1373.39	7.31625
1373.56	8.34967
1373.72	6.33609
1373.89	11.5176
1374.05	1.68082
1374.22	6.90903
1374.38	7.43478
1374.54	6.41229
1374.71	7.34506
1374.87	1.77771
1375.04	5.49045
1375.2	5.55411
1375.37	6.75601
1375.53	8.22968
1375.7	8.94092
1375.86	6.00589
1376.03	9.63666
1376.19	4.80185
1376.36	4.79987
1376.52	6.35529
1376.69	7.6496
1376.85	9.49832
1377.02	10.7491
1377.18	5.29907
1377.34	9.24188
1377.51	20.2926
1377.67	10.0561
1377.84	6.64133
1378	9.24542
1378.17	4.0553
1378.33	7.96432
1378.5	7.53253
1378.66	4.15094
1378.83	9.4624
1378.99	9.80484
1379.16	13.0697
1379.32	6.17325
1379.48	5.14746
1379.65	7.88309
1379.81	20.0286
1379.98	8.0033
1380.14	10.2468
1380.31	8.98047
1380.47	8.49564
1380.64	9.73059
1380.8	12.2969
1380.97	9.69403
1381.13	8.65143
1381.3	7.93854
1381.46	9.8114
1381.62	8.43457
1381.79	5.94827
1381.95	8.20102
1382.12	10.5414
1382.28	11.8
1382.45	5.38388
1382.61	10.9311
1382.78	12.1199
1382.94	4.55518
1383.1	7.10001
1383.27	9.24466
1383.43	9.75027
1383.6	10.7056
1383.76	13.5813
1383.93	7.55582
1384.09	5.20523
1384.26	17.7834
1384.42	15.3173
1384.58	8.02148
1384.75	13.576
1384.91	12.8844
1385.08	13.6484
1385.24	17.3665
1385.4	14.351
1385.57	16.2176
1385.73	21.893
1385.9	25.5823
1386.06	31.9249
1386.23	36.2624
1386.39	33.5762
1386.56	51.442
1386.72	77.2166
1386.88	110.15
1387.05	150.543
1387.21	223.257
1387.38	311.895
1387.54	343.911
1387.7	316.462
1387.87	234.554
1388.03	143.35
1388.2	84.1962
1388.36	53.4276
1388.53	32.1527
1388.69	39.5927
1388.85	22.8726
1389.02	19.4696
1389.18	23.6599
1389.35	13.5908
1389.51	14.7212
1389.68	11.809
1389.84	16.2043
1390	18.6253
1390.17	15.2377
1390.33	7.60254
1390.5	0.489685
1390.66	8.901
1390.82	5.71213
1390.99	4.94843
1391.15	6.30313
1391.32	9.54898
1391.48	8.86755
1391.64	3.47214
1391.81	10.6334
1391.97	7.63199
1392.14	4.6799
1392.3	4.61642
1392.46	7.41141
1392.63	8.38391
1392.79	5.53879
1392.96	4.49509
1393.12	11.3445
1393.28	8.0499
1393.45	9.43286
1393.61	3.48367
1393.78	9.04507
1393.94	3.79575
1394.1	8.01837
1394.27	5.23877
1394.43	9.96289
1394.6	9.95364
1394.76	5.3631
1394.92	5.57944
1395.09	6.82587
1395.25	7.32788
1395.42	4.09109
1395.58	7.12234
1395.74	-0.0644836
1395.91	-1.07068
1396.07	2.35458
1396.24	1.66931
1396.4	2.27509
1396.56	6.79309
1396.73	10.0586
1396.89	7.06827
1397.05	2.04681
1397.22	8.67053
1397.38	5.58896
1397.55	1.37943
1397.71	2.01715
1397.87	9.00705
1398.04	3.633
1398.2	2.01392
1398.36	-2.32654
1398.53	1.82892
1398.69	6.16232
1398.86	6.00778
1399.02	1.73602
1399.18	5.96295
1399.35	5.81192
1399.51	3.07483
1399.67	3.39651
1399.84	9.45325
1400	3.16577
1400.17	8.19562
1400.33	3.20377
1400.49	1.22324
1400.66	1.60315
1400.82	1.81445
1400.98	2.53024
1401.15	9.73898
1401.31	2.38855
1401.47	3.38745
1401.64	2.42395
1401.8	7.89969
1401.97	2.7887
1402.13	9.0379
1402.29	8.91101
1402.46	4.83749
1402.62	6.87106
1402.78	4.1221
1402.95	6.12152
1403.11	4.61908
1403.27	-0.139282
1403.44	5.99292
1403.6	3.52982
1403.76	2.47275
1403.93	6.45935
1404.09	4.25897
1404.26	1.17126
1404.42	7.28983
1404.58	6.3627
1404.75	2.23486
1404.91	3.98608
1405.07	4.86935
1405.24	4.01566
1405.4	4.07541
1405.56	7.17374
1405.73	6.39319
1405.89	7.47684
1406.05	5.08658
1406.22	1.966
1406.38	4.47028
1406.54	7.6958
1406.71	3.16891
1406.87	5.1871
1407.03	8.23254
1407.2	6.00745
1407.36	4.68405
1407.52	9.97092
1407.69	4.26331
1407.85	11.4972
1408.01	5.16116
1408.18	10.42
1408.34	7.11084
1408.5	16.2907
1408.67	12.2551
1408.83	15.7827
1408.99	19.3763
1409.16	15.056
1409.32	13.5999
1409.48	13.6425
1409.65	13.03
1409.81	9.17453
1409.97	14.0478
1410.14	7.0766
1410.3	5.92929
1410.46	7.10709
1410.63	9.33078
1410.79	3.35123
1410.95	5.34097
1411.12	4.26065
1411.28	7.3063
1411.44	3.03119
1411.61	2.40219
1411.77	2.59195
1411.93	4.01852
1412.1	2.9649
1412.26	14.2466
1412.42	1.77579
1412.58	8.16235
1412.75	2.10214
1412.91	3.5264
1413.08	0.836121
1413.24	5.70758
1413.4	0.811493
1413.56	2.08109
1413.73	1.26608
1413.89	3.41754
1414.05	4.66623
1414.22	1.26602
1414.38	-0.2435
1414.54	0.843231
1414.71	0.881134
1414.87	3.01208
1415.03	4.51593
1415.19	6.14789
1415.36	5.17468
1415.52	2.28619
1415.68	3.22205
1415.85	0.80661
1416.01	5.00101
1416.17	4.56116
1416.34	1.80698
1416.5	5.33237
1416.66	1.3786
1416.83	7.15363
1416.99	1.75488
1417.15	3.4166
1417.31	1.57562
1417.48	9.50656
1417.64	1.50586
1417.8	6.05371
1417.97	-0.392609
1418.13	10.5014
1418.29	9.4429
1418.46	-0.297546
1418.62	3.05203
1418.78	3.38962
1418.94	3.00967
1419.11	3.336
1419.27	9.59723
1419.43	3.66959
1419.59	0.22406
1419.76	4.63339
1419.92	7.55737
1420.08	2.35306
1420.25	1.22723
1420.41	6.11835
1420.57	-0.164093
1420.73	3.42865
1420.9	4.00845
1421.06	-0.521362
1421.22	3.71481
1421.39	5.52554
1421.55	2.50751
1421.71	10.5295
1421.87	5.38132
1422.04	3.00159
1422.2	5.19354
1422.36	7.45593
1422.52	5.70605
1422.69	6.15884
1422.85	0.204803
1423.01	6.85284
1423.18	-0.854706
1423.34	0.894043
1423.5	1.19263
1423.66	1.3504
1423.83	4.37445
1423.99	1.97791
1424.15	4.4783
1424.31	2.03061
1424.48	4.95325
1424.64	2.06079
1424.8	5.47235
1424.97	9.2796
1425.13	12.6017
1425.29	-0.133148
1425.45	8.12067
1425.61	5.66739
1425.78	4.94803
1425.94	1.8266
1426.1	3.19772
1426.27	3.09485
1426.43	1.84427
1426.59	1.9303
1426.75	1.89157
1426.92	5.17776
1427.08	1.08911
1427.24	6.47998
1427.4	1.49649
1427.57	4.48911
1427.73	2.3718
1427.89	3.44116
1428.05	4.17636
1428.22	0.731476
1428.38	4.39862
1428.54	0.130707
1428.7	3.40094
1428.87	4.68689
1429.03	2.61484
1429.19	5.29816
1429.35	2.67862
1429.52	4.94247
1429.68	6.61578
1429.84	7.16086
1430	5.96326
1430.17	7.26166
1430.33	0.858887
1430.49	4.7128
1430.65	1.77228
1430.82	2.93008
1430.98	1.06653
1431.14	4.48645
1431.3	3.3046
1431.46	0.121002
1431.63	3.08594
1431.79	0.922272
1431.95	4.52679
1432.11	5.37204
1432.28	3.26865
1432.44	-1.21017
1432.6	3.33035
1432.76	0.130737
1432.93	3.6105
1433.09	1.01129
1433.25	-0.129913
1433.41	6.40338
1433.57	6.34683
1433.74	3.40964
1433.9	-0.184814
1434.06	4.79498
1434.22	5.01553
1434.38	5.4711
1434.55	6.29639
1434.71	9.48611
1434.87	1.77365
1435.03	4.85593
1435.2	6.21942
1435.36	2.10431
1435.52	5.81296
1435.68	0.949921
1435.85	2.39938
1436.01	1.32898
1436.17	0.921844
1436.33	-0.200592
1436.49	7.94397
1436.66	5.89111
1436.82	4.81152
1436.98	5.51318
1437.14	2.35184
1437.3	4.8194
1437.47	9.43695
1437.63	6.18668
1437.79	7.70792
1437.95	1.88809
1438.11	5.48151
1438.28	1.10199
1438.44	4.32999
1438.6	8.09491
1438.76	5.01529
1438.92	2.97324
1439.09	3.57452
1439.25	3.31958
1439.41	5.70898
1439.57	4.38715
1439.73	6.63351
1439.9	4.18542
1440.06	4.01846
1440.22	5.15622
1440.38	4.54352
1440.54	-0.06427
1440.71	4.6467
1440.87	3.92316
1441.03	0.784149
1441.19	2.06015
1441.35	2.10855
1441.52	8.80911
1441.68	2.9202
1441.84	0.341248
1442	3.17154
1442.16	4.65909
1442.33	3.66635
1442.49	3.92545
1442.65	5.97662
1442.81	2.83209
1442.97	12.0464
1443.14	6.0769
1443.3	4.83774
1443.46	2.38809
1443.62	6.49005
1443.78	6.01846
1443.94	4.73587
1444.11	6.86554
1444.27	-0.356018
1444.43	6.16156
1444.59	7.44226
1444.75	4.70508
1444.91	5.04572
1445.08	5.0358
1445.24	3.91568
1445.4	1.39603
1445.56	3.98245
1445.72	2.09894
1445.88	3.24374
1446.05	0.377563
1446.21	4.81119
1446.37	-2.16327
1446.53	5.04462
1446.69	-0.112427
1446.85	4.202
1447.02	3.11441
1447.18	1.4256
1447.34	5.06805
1447.5	4.29233
1447.66	9.80731
1447.82	3.32404
1447.99	2.92719
1448.15	2.69666
1448.31	3.85809
1448.47	6.01294
1448.63	6.41562
1448.79	0.244751
1448.96	12.8052
1449.12	4.34982
1449.28	1.4801
1449.44	5.96567
1449.6	5.61682
1449.76	5.82391
1449.93	5.74438
1450.09	4.13419
1450.25	2.48288
1450.41	1.02802
1450.57	5.39908
1450.73	4.07712
1450.9	5.33508
1451.06	5.93622
1451.22	2.73068
1451.38	0.728027
1451.54	6.52509
1451.7	3.20129
1451.86	3.04803
1452.03	1.93637
1452.19	3.60699
1452.35	6.05276
1452.51	2.98654
1452.67	6.3074
1452.83	5.4263
1452.99	6.35547
1453.16	3.58578
1453.32	5.1106
1453.48	7.11829
1453.64	3.22241
1453.8	7.45084
1453.96	5.26291
1454.12	2.86569
1454.28	1.48807
1454.45	4.98639
1454.61	5.89667
1454.77	3.52798
1454.93	2.62921
1455.09	5.22485
1455.25	3.03857
1455.41	1.45682
1455.58	2.99347
1455.74	3.37146
1455.9	3.19156
1456.06	2.70264
1456.22	2.46304
1456.38	0.579926
1456.54	0.644775
1456.7	1.18741
1456.86	0.903442
1457.03	1.2316
1457.19	1.76505
1457.35	1.77945
1457.51	3.85095
1457.67	0.0996399
1457.83	6.42746
1457.99	8.58441
1458.15	4.06876
1458.32	1.12915
1458.48	3.86319
1458.64	3.70184
1458.8	3.05716
1458.96	1.57559
1459.12	5.12604
1459.28	4.17923
1459.44	2.14178
1459.61	2.50034
1459.77	2.88638
1459.93	-0.155823
1460.09	5.33606
1460.25	2.11392
1460.41	0.220612
1460.57	1.13907
1460.73	5.1687
1460.9	2.88651
1461.06	5.1485
1461.22	3.30792
1461.38	3.2569
1461.54	6.77692
1461.7	3.88333
1461.86	2.84937
1462.02	1.97809
1462.18	3.33673
1462.34	3.87494
1462.5	6.81186
1462.67	2.82755
1462.83	4.96524
1462.99	4.23959
1463.15	2.24979
1463.31	4.37128
1463.47	4.34613
1463.63	5.78345
1463.79	3.51346
1463.95	2.87021
1464.11	4.27524
1464.28	3.47488
1464.44	3.08734
1464.6	2.68878
1464.76	2.07547
1464.92	2.66345
1465.08	3.47226
1465.24	4.80737
1465.4	5.07352
1465.56	3.64493
1465.72	2.66522
1465.88	2.60861
1466.04	1.17398
1466.21	1.76038
1466.37	7.05765
1466.53	8.06122
1466.69	3.41235
1466.85	1.61145
1467.01	4.34775
1467.17	4.9931
1467.27	1.44757
1467.43	-2.62607
1467.59	-0.822205
1467.76	3.27478
1467.92	0.170685
1468.08	8.38312
1468.25	2.58661
1468.41	1.48422
1468.57	3.54227
1468.74	2.30313
1468.9	4.06543
1469.07	0.143433
1469.23	0.830505
1469.39	7.3779
1469.56	2.78046
1469.72	4.27811
1469.88	2.49188
1470.04	4.36917
1470.21	3.24084
1470.37	1.22336
1470.53	4.82153
1470.7	4.65369
1470.86	1.09772
1471.02	2.14957
1471.19	-1.82809
1471.35	3.27328
1471.51	1.33755
1471.68	0.112244
1471.84	0.148163
1472	-0.339203
1472.17	1.73669
1472.33	-0.761322
1472.49	0.664795
1472.66	0.100861
1472.82	1.14764
1472.98	0.846191
1473.15	6.12399
1473.31	0.897308
1473.47	-0.235535
1473.64	0.0529175
1473.8	0.027832
1473.96	1.84348
1474.12	-1.00598
1474.29	2.7886
1474.45	3.44681
1474.61	0.88327
1474.78	3.01807
1474.94	1.16974
1475.1	4.90872
1475.27	3.61322
1475.43	-1.0199
1475.59	1.80911
1475.76	3.65689
1475.92	-0.385101
1476.08	1.84409
1476.25	2.36768
1476.41	8.95801
1476.57	-0.88324
1476.73	2.8515
1476.9	-0.306091
1477.06	-0.236176
1477.22	3.50687
1477.39	1.19901
1477.55	1.3616
1477.71	2.62067
1477.88	0.63028
1478.04	3.63177
1478.2	0.592621
1478.36	18.4085
1478.53	6.70004
1478.69	0.528961
1478.85	-0.325378
1479.02	1.93509
1479.18	-0.600006
1479.34	2.35181
1479.51	2.64404
1479.67	3.01266
1479.83	0.208862
1479.99	-0.906219
1480.16	3.29266
1480.32	5.64346
1480.48	5.40631
1480.65	-0.177551
1480.81	0.801697
1480.97	1.59164
1481.13	1.74438
1481.3	0.643097
1481.46	0.198151
1481.62	3.24716
1481.79	1.34692
1481.95	-1.81885
1482.11	-1.05795
1482.27	0.739594
1482.44	1.55145
1482.6	-3.37466
1482.76	-2.02286
1482.92	-0.216248
1483.09	2.64401
1483.25	-0.787994
1483.41	5.14075
1483.58	0.11087
1483.74	0.992493
1483.9	1.45804
1484.06	0.406067
1484.23	0.698853
1484.39	2.28528
1484.55	2.49197
1484.72	1.2493
1484.88	-0.737366
1485.04	0.920624
1485.2	3.39548
1485.37	2.8728
1485.53	1.5723
1485.69	-0.0728455
1485.85	1.23416
1486.02	3.15805
1486.18	-2.45795
1486.34	2.80582
1486.5	-2.44101
1486.67	-1.8692
1486.83	-0.27359
1486.99	-3.33511
1487.15	-0.0513
1487.32	-1.0752
1487.48	-0.614197
1487.64	-1.38306
1487.81	2.88522
1487.97	1.72989
1488.13	-1.70544
1488.29	1.45621
1488.46	-0.810028
1488.62	-2.8324
1488.78	1.89896
1488.94	-1.91284
1489.1	2.91495
1489.27	0.388367
1489.43	-1.17355
1489.59	-1.89114
1489.76	-0.601715
1489.92	1.83459
1490.08	1.11868
1490.24	2.41745
1490.41	4.20508
1490.57	-1.26154
1490.73	3.21951
1490.89	0.501038
1491.06	-1.06992
1491.22	-0.264313
1491.38	-1.17914
1491.54	2.14883
1491.7	1.32355
1491.87	0.187103
1492.03	-0.0891724
1492.19	-0.689819
1492.35	3.72769
1492.52	2.33432
1492.68	1.965
1492.84	1.18872
1493	-0.282227
1493.17	-1.37708
1493.33	-1.17694
1493.49	-3.0705
1493.65	1.17609
1493.82	-1.27097
1493.98	0.0775146
1494.14	4.9014
1494.3	1.95563
1494.46	-2.83182
1494.63	-1.16586
1494.79	-3.66321
1494.95	2.65396
1495.11	-0.531128
1495.28	1.36655
1495.44	-2.17859
1495.6	-2.71671
1495.76	5.36496
1495.92	2.05051
1496.09	-0.0393677
1496.25	-2.39389
1496.41	5.69434
1496.57	2.88351
1496.74	0.876221
1496.9	-2.14365
1497.06	0.500122
1497.22	3.94528
1497.38	-1.0943
1497.55	1.75995
1497.71	0.195801
1497.87	-0.740814
1498.03	1.53781
1498.2	0.467163
1498.36	0.473511
1498.52	-1.6517
1498.68	-3.77383
1498.84	2.76056
1499.01	3.04166
1499.17	-0.354279
1499.33	-0.124329
1499.49	2.31763
1499.65	1.04129
1499.82	3.84698
1499.98	-0.52121
1500.14	-3.73288
1500.3	-1.37613
1500.46	-0.305817
1500.63	-0.328064
1500.79	-2.49341
1500.95	-1.85458
1501.11	3.51129
1501.27	-1.22833
1501.44	-2.41367
1501.6	-1.72433
1501.76	-1.43005
1501.92	-0.240112
1502.08	-0.502502
1502.25	-1.24081
1502.41	-2.33072
1502.57	-2.79703
1502.73	1.56677
1502.89	1.06747
1503.06	2.79153
1503.22	0.507935
1503.38	1.69574
1503.54	-0.450409
1503.7	0.165405
1503.87	-0.122772
1504.03	0.0452271
1504.19	-2.95984
1504.35	0.704376
1504.51	-0.494568
1504.68	1.25049
1504.84	3.80652
1505	-0.870178
1505.16	-1.07013
1505.32	3.17154
1505.48	-1.0141
1505.65	-0.39502
1505.81	-0.0108948
1505.97	14.6654
1506.13	4.0907
1506.29	-0.341309
1506.46	5.31525
1506.62	1.65134
1506.78	1.12729
1506.94	2.34244
1507.1	-2.85394
1507.26	-2.83521
1507.43	1.68396
1507.59	3.46198
1507.75	0.789825
1507.91	0.424133
1508.07	3.95639
1508.23	-1.79984
1508.4	0.336456
1508.56	4.52188
1508.72	-0.031189
1508.88	-2.76355
1509.04	5.56076
1509.2	-2.01831
1509.37	-0.399658
1509.53	-0.700836
1509.69	0.436279
1509.85	-3.39746
1510.01	-2.02176
1510.17	-2.90219
1510.34	-1.86172
1510.5	0.439148
1510.66	2.76566
1510.82	-1.72336
1510.98	-0.631256
1511.14	1.76944
1511.31	-0.481079
1511.47	1.36636
1511.63	-1.34393
1511.79	-0.423523
1511.95	-2.23193
1512.11	1.74048
1512.27	1.14658
1512.44	-0.892822
1512.6	4.10236
1512.76	0.917389
1512.92	1.60208
1513.08	-0.948792
1513.24	-1.17752
1513.4	1.21204
1513.57	-0.375061
1513.73	-3.60184
1513.89	-3.40057
1514.05	2.99048
1514.21	7.07733
1514.37	-1.05075
1514.54	1.24225
1514.7	2.37936
1514.86	4.51666
1515.02	0.244568
1515.18	6.86093
1515.34	0.645233
1515.5	1.93866
1515.67	1.61761
1515.83	7.49567
1515.99	1.09973
1516.15	0.230194
1516.31	-0.326813
1516.47	2.69437
1516.63	-2.03357
1516.8	-0.45108
1516.96	-1.33182
1517.12	-2.41891
1517.28	0.22699
1517.44	-1.29993
1517.6	0.940918
1517.76	2.57791
1517.92	3.1799
1518.09	1.18948
1518.25	0.248352
1518.41	0.206482
1518.57	-1.96646
1518.73	3.40887
1518.89	-1.87909
1519.05	-2.33203
1519.21	0.151245
1519.38	-1.9967
1519.54	1.24747
1519.7	3.57776
1519.86	-0.454315
1520.02	-0.491974
1520.18	1.71237
1520.34	-0.168762
1520.5	0.159027
1520.67	0.135345
1520.83	0.299011
1520.99	1.88925
1521.15	3.81995
1521.31	-1.25708
1521.47	4.63239
1521.63	-0.265076
1521.79	-2.85754
1521.95	-1.58847
1522.12	2.12408
1522.28	-0.812103
1522.44	2.9931
1522.6	2.66907
1522.76	-0.400269
1522.92	-0.59137
1523.08	6.2103
1523.24	1.62781
1523.4	1.96283
1523.57	-0.0530396
1523.73	-0.363556
1523.89	2.16269
1524.05	0.0768738
1524.21	2.00604
1524.37	-1.06219
1524.53	6.41025
1524.69	6.48557
1524.85	2.35251
1525.02	3.0679
1525.18	0.0769653
1525.34	1.4086
1525.5	4.30313
1525.66	0.0533142
1525.82	5.72449
1525.98	-1.09763
1526.14	0.712311
1526.3	-0.10968
1526.46	0.210052
1526.63	0.00857544
1526.79	2.48172
1526.95	-1.46063
1527.11	2.4537
1527.27	-0.015564
1527.43	0.751709
1527.59	-0.421112
1527.75	4.21381
1527.91	-1.8938
1528.07	-0.655853
1528.23	-1.72739
1528.4	-0.640839
1528.56	-2.70529
1528.72	0.759155
1528.88	1.05231
1529.04	0.851044
1529.2	1.10114
1529.36	4.55884
1529.52	5.21338
1529.68	0.730408
1529.84	-0.248199
1530	1.32471
1530.16	0.705902
1530.33	4.25443
1530.49	3.6568
1530.65	1.20624
1530.81	0.980408
1530.97	-1.12366
1531.13	1.96759
1531.29	1.70807
1531.45	3.64029
1531.61	2.37619
1531.77	4.47617
1531.93	3.29962
1532.09	2.14362
1532.25	2.12759
1532.41	-0.0062561
1532.58	2.8511
1532.74	0.0812988
1532.9	5.99634
1533.06	6.28665
1533.22	9.0058
1533.38	3.25208
1533.54	0.921997
1533.7	-0.163055
1533.86	4.35013
1534.02	0.508087
1534.18	-0.0161743
1534.34	2.13205
1534.5	3.68011
1534.66	3.77054
1534.82	2.40305
1534.98	1.27713
1535.15	0.376251
1535.31	-1.38361
1535.47	1.92191
1535.63	-0.556915
1535.79	2.98453
1535.95	-0.78595
1536.11	4.6481
1536.27	6.60471
1536.43	3.9118
1536.59	10.8133
1536.75	2.29388
1536.91	3.93536
1537.07	5.2605
1537.23	4.63638
1537.39	4.39456
1537.55	5.75949
1537.71	2.9603
1537.87	5.99011
1538.03	2.25751
1538.19	3.71069
1538.36	3.73697
1538.52	5.00201
1538.68	0.724335
1538.84	2.37793
1539	0.266052
1539.16	5.8887
1539.32	2.61282
1539.48	0.265991
1539.64	2.0788
1539.8	2.06396
1539.96	4.32831
1540.12	2.63263
1540.28	4.67355
1540.44	0.516357
1540.6	3.6716
1540.76	2.51642
1540.92	3.12137
1541.08	1.32272
1541.24	3.28253
1541.4	0.294189
1541.56	0.342529
1541.72	3.03165
1541.88	1.85791
1542.04	2.75156
1542.2	1.46246
1542.36	-0.162018
1542.52	4.51453
1542.68	2.88065
1542.84	7.67044
1543.01	2.66977
1543.17	4.65103
1543.33	5.24789
1543.49	4.95529
1543.65	1.94699
1543.81	1.15488
1543.97	5.39923
1544.13	4.31076
1544.29	6.10257
1544.45	5.82751
1544.61	6.48898
1544.77	1.19989
1544.93	-0.464691
1545.09	0.687378
1545.25	3.89658
1545.41	-0.248901
1545.57	2.75098
1545.73	6.87653
1545.89	13.0565
1546.05	2.47455
1546.21	3.32321
1546.37	2.25284
1546.53	4.05954
1546.69	3.7569
1546.85	4.48602
1547.01	7.73502
1547.17	2.9646
1547.33	2.522
1547.49	5.30801
1547.65	0.293152
1547.81	4.06644
1547.97	0.547272
1548.13	2.78168
1548.29	5.67386
1548.45	0.65976
1548.61	9.85736
1548.77	3.49985
1548.93	0.272125
1549.09	7.77167
1549.25	6.87323
1549.41	3.97986
1549.57	3.20059
1549.73	1.21414
1549.89	1.62918
1550.05	-1.67053
1550.21	4.91129
1550.37	0.713928
1550.53	4.30627
1550.69	0.981262
1550.85	3.33337
1551.01	4.6705
1551.17	6.5809
1551.33	2.61887
1551.49	3.44522
1551.65	2.6983
1551.81	5.1384
1551.97	3.81506
1552.13	3.11899
1552.29	3.92929
1552.45	-1.1463
1552.61	0.708069
1552.77	2.10477
1552.93	5.24149
1553.09	3.13422
1553.25	1.15451
1553.41	0.676971
1553.57	2.27008
1553.73	6.84271
1553.89	3.10715
1554.05	0.887421
1554.21	-1.1481
1554.37	3.2778
1554.53	2.58374
1554.69	3.68445
1554.84	3.96783
1555	6.9747
1555.16	2.87607
1555.32	8.19412
1555.48	2.94556
1555.64	-1.13531
1555.8	6.86371
1555.96	2.27139
1556.12	6.36765
1556.28	7.9772
1556.44	0.178741
1556.6	1.68179
1556.76	7.60486
1556.92	5.93533
1557.08	3.71356
1557.24	3.64813
1557.4	5.10614
1557.56	10.023
1557.72	2.64584
1557.88	3.8002
1558.04	5.15765
1558.2	2.05093
1558.36	5.08249
1558.52	2.8056
1558.68	-0.209839
1558.84	6.09555
1558.99	3.03616
1559.15	3.08243
1559.31	4.64957
1559.47	8.46689
1559.63	1.23135
1559.79	3.68729
1559.95	5.95569
1560.11	8.44611
1560.27	2.70053
1560.43	1.95981
1560.59	6.39685
1560.75	4.84348
1560.91	2.37512
1561.07	4.14667
1561.23	0.559692
1561.39	1.53717
1561.55	3.85269
1561.71	2.64862
1561.87	1.93387
1562.03	5.17535
1562.19	2.21631
1562.35	3.41568
1562.5	3.95358
1562.66	0.395355
1562.82	9.13593
1562.98	3.5625
1563.14	3.42267
1563.3	2.28348
1563.46	9.44559
1563.62	4.37405
1563.78	2.93301
1563.94	3.49164
1564.1	6.12534
1564.26	5.34421
1564.42	6.33246
1564.58	1.25909
1564.73	2.19797
1564.89	3.61383
1565.05	3.68304
1565.21	4.52182
1565.37	2.70758
1565.53	3.45959
1565.69	-1.40201
1565.85	1.11572
1566.01	5.82718
1566.17	7.0462
1566.33	0.44046
1566.49	2.56927
1566.65	2.07117
1566.81	0.406952
1566.97	0.465179
1567.12	1.22824
1567.28	4.40503
1567.44	-1.18253
1567.6	0.748444
1567.76	2.02548
1567.92	3.62329
1568.08	2.85583
1568.24	1.78061
1568.4	3.28198
1568.56	5.27957
1568.72	-0.35141
1568.88	3.0657
1569.03	4.15286
1569.19	5.07642
1569.35	0.0683594
1569.51	-0.958038
1569.67	0.889862
1569.83	0.929352
1569.99	1.67606
1570.15	0.427765
1570.31	-1.07294
1570.47	8.52658
1570.63	0.0744324
1570.78	1.48642
1570.94	3.75531
1571.1	5.84201
1571.26	3.93845
1571.42	5.27069
1571.58	4.27197
1571.74	-0.0952148
1571.9	1.89261
1572.06	4.69836
1572.22	3.08466
1572.38	2.02499
1572.53	2.51816
1572.69	3.64185
1572.85	1.8334
1573.01	-0.0569763
1573.17	-0.435974
1573.33	1.49478
1573.49	3.83609
1573.65	2.55267
1573.81	-0.702698
1573.96	5.58337
1574.12	0.248962
1574.28	2.16632
1574.44	3.58444
1574.6	-0.301544
1574.76	0.23526
1574.92	6.42398
1575.08	2.99139
1575.24	4.95563
1575.39	1.78867
1575.55	3.81839
1575.71	2.58383
1575.87	4.60559
1576.03	3.96591
1576.19	3.2478
1576.35	4.13495
1576.51	1.84686
1576.67	-1.29535
1576.82	-2.85822
1576.98	1.1319
1577.14	-0.203094
1577.3	3.48917
1577.46	0.281372
1577.62	3.4057
1577.78	0.00280762
1577.94	0.699799
1578.09	-1.37497
1578.25	2.00546
1578.41	0.309875
1578.57	0.475403
1578.73	-0.863708
1578.89	2.63812
1579.05	0.470215
1579.21	0.688324
1579.36	4.0452
1579.52	-0.191071
1579.68	-0.476563
1579.84	4.29636
1580	4.86279
1580.16	-0.58017
1580.32	0.41571
1580.47	-3.12415
1580.63	2.70816
1580.79	3.72272
1580.95	-0.647736
1581.11	0.439789
1581.27	-1.05917
1581.43	1.29477
1581.59	1.72208
1581.74	-0.549805
1581.9	0.391937
1582.06	8.1412
1582.22	-0.265503
1582.38	-0.958923
1582.54	-0.194489
1582.7	0.8638
1582.85	4.38605
1583.01	0.604095
1583.17	3.16248
1583.33	-3.06302
1583.49	-1.58115
1583.65	3.75473
1583.8	0.967438
1583.96	-0.589325
1584.12	2.96558
1584.28	1.82541
1584.44	2.07953
1584.6	2.07495
1584.76	3.35092
1584.91	0.629303
1585.07	3.49625
1585.23	-1.96613
1585.39	2.64764
1585.55	2.74744
1585.71	0.343262
1585.87	2.733
1586.02	0.761017
1586.18	3.46259
1586.34	-0.731018
1586.5	0.370209
1586.66	-1.6344
1586.82	-0.633545
1586.97	3.84879
1587.13	-0.914001
1587.29	0.928925
1587.45	-1.51703
1587.61	4.79779
1587.77	0.308624
1587.92	3.07327
1588.08	-0.244629
1588.24	1.39935
1588.4	-0.491486
1588.56	2.52142
1588.72	1.17899
1588.87	-0.574371
1589.03	-2.04434
1589.19	3.24359
1589.35	1.16367
1589.51	-1.16501
1589.67	0.442047
1589.82	1.83969
1589.98	0.454285
1590.14	-0.310822
1590.3	3.01682
1590.46	-0.872131
1590.62	-2.74677
1590.77	0.443512
1590.93	-1.10031
1591.09	0.227722
1591.25	12.3202
1591.41	1.95398
1591.56	3.91779
1591.72	-2.9404
1591.88	-0.859955
1592.04	0.364075
1592.2	-2.18594
1592.36	4.31805
1592.51	-0.200348
1592.67	-0.405701
1592.83	1.12903
1592.99	-1.74884
1593.15	4.21228
1593.3	-0.0198364
1593.46	2.60156
1593.62	-1.51404
1593.78	4.90402
1593.94	-2.55295
1594.09	3.12543
1594.25	4.26236
1594.41	-0.153107
1594.57	-1.92746
1594.73	-3.00314
1594.88	2.19302
1595.04	8.06992
1595.2	5.35953
1595.36	-1.9314
1595.52	3.2847
1595.67	8.13098
1595.83	-0.605103
1595.99	2.40677
1596.15	-0.810272
1596.31	1.92957
1596.47	3.1774
1596.62	2.09952
1596.78	-1.39938
1596.94	-2.6608
1597.1	2.83926
1597.25	-0.72522
1597.41	-0.13266
1597.57	-1.25061
1597.73	-2.82166
1597.89	1.59561
1598.04	1.70255
1598.2	1.40433
1598.36	-3.93362
1598.52	1.16522
1598.68	-1.7467
1598.83	4.48071
1598.99	0.968842
1599.15	-1.35519
1599.31	-1.72025
1599.47	1.99429
1599.62	-2.21683
1599.78	-1.34131
1599.94	3.36441
1600.1	-1.29987
1600.25	0.106873
1600.41	-0.551361
1600.57	2.2731
1600.73	3.14273
1600.89	-1.62753
1601.04	-0.552826
1601.2	2.43643
1601.36	0.412903
1601.52	1.85391
1601.67	1.46362
1601.83	-2.35214
1601.99	1.10492
1602.15	-2.10489
1602.31	0.868164
1602.46	0.560913
1602.62	-0.791718
1602.78	2.27777
1602.94	-0.331299
1603.09	-1.07233
1603.25	2.33289
1603.41	4.39487
1603.57	-3.65814
1603.72	2.76025
1603.88	1.36234
1604.04	2.51291
1604.2	0.842194
1604.35	3.61084
1604.51	-2.58972
1604.67	-1.83176
1604.83	-1.58728
1604.99	-1.92334
1605.14	-1.89355
1605.3	-1.89957
1605.46	0.521606
1605.62	-0.539276
1605.77	-0.683929
1605.93	-1.51624
1606.09	-0.171143
1606.25	0.81366
1606.4	-3.73071
1606.56	2.37662
1606.72	-1.16339
1606.88	0.0216064
1607.03	-1.92944
1607.19	6.68973
1607.35	-0.112976
1607.51	-2.29306
1607.66	-1.80038
1607.82	-1.27737
1607.98	4.04608
1608.14	1.58432
1608.29	-0.860626
1608.45	-4.34579
1608.61	3.54965
1608.77	-3.11414
1608.92	-3.12457
1609.08	0.590088
1609.24	2.21252
1609.4	2.19736
1609.55	-0.249725
1609.71	5.91394
1609.87	2.38699
1610.03	5.80902
1610.18	-1.12054
1610.34	-1.77017
1610.5	-1.59274
1610.66	1.95309
1610.81	2.01141
1610.97	-1.33401
1611.13	3.30728
1611.28	1.80389
1611.44	1.9397
1611.6	2.71277
1611.76	1.53085
1611.91	-1.47723
1612.07	-1.12415
1612.23	-0.526581
1612.39	-1.0144
1612.54	2.10776
1612.7	1.15057
1612.86	-1.42477
1613.02	-1.84158
1613.17	0.17276
1613.33	2.58615
1613.49	-0.327515
1613.64	0.789948
1613.8	-0.427826
1613.96	0.808838
1614.12	6.74902
1614.27	2.44162
1614.43	-2.04089
1614.59	-0.730255
1614.75	0.89856
1614.9	4.47385
1615.06	-0.757782
1615.22	-0.461945
1615.37	-1.38184
1615.53	-0.190247
1615.69	1.87018
1615.84	1.26883
1616	3.44333
1616.16	5.5408
1616.32	-0.167908
1616.47	1.42972
1616.63	0.809967
1616.79	0.20343
1616.95	3.4332
1617.1	1.57159
1617.26	-0.516266
1617.42	0.28772
1617.57	1.53961
1617.73	1.50211
1617.89	4.86313
1618.04	4.07986
1618.2	-0.139801
1618.36	-0.870148
1618.52	0.694824
1618.67	3.82031
1618.83	-1.92148
1618.99	3.72318
1619.14	-0.166534
1619.3	0.877777
1619.46	1.24707
1619.61	13.5682
1619.77	-0.282654
1619.93	0.936859
1620.09	2.88684
1620.24	3.93634
1620.4	5.86212
1620.56	6.38126
1620.71	-1.30432
1620.87	1.39771
1621.03	0.487976
1621.18	-2.4928
1621.34	4.79669
1621.5	2.26038
1621.65	4.00073
1621.81	8.04074
1621.97	-1.93369
1622.13	0.121063
1622.28	0.940308
1622.44	-1.77203
1622.6	2.55133
1622.75	2.13022
1622.91	2.98444
1623.07	2.85223
1623.22	-0.0952759
1623.38	1.92786
1623.54	6.49313
1623.69	-1.25223
1623.85	0.0612183
1624.01	4.27133
1624.16	1.72302
1624.32	1.96967
1624.48	1.38907
1624.63	3.24982
1624.79	1.00107
1624.95	1.16571
1625.11	4.87445
1625.26	0.759064
1625.42	2.81992
1625.58	-0.555206
1625.73	-1.73373
1625.89	-0.441864
1626.05	5.7041
1626.2	1.05121
1626.36	3.24506
1626.52	1.69388
1626.67	1.03931
1626.83	2.68433
1626.99	0.656281
1627.14	0.19046
1627.3	4.54089
1627.46	1.78241
1627.61	1.03796
1627.77	-2.46979
1627.93	5.18137
1628.08	0.143677
1628.24	1.71088
1628.4	5.32245
1628.55	3.64334
1628.71	3.63663
1628.87	7.00848
1629.02	4.21161
1629.18	8.32733
1629.33	-0.141815
1629.49	4.23505
1629.65	4.14392
1629.8	0.0212402
1629.96	4.20953
1630.12	0.523468
1630.27	2.87292
1630.43	4.22086
1630.59	2.53891
1630.74	5.44293
1630.9	0.702545
1631.06	-0.85788
1631.21	2.00745
1631.37	6.42337
1631.53	6.82751
1631.68	4.02875
1631.84	5.40671
1632	3.60419
1632.15	4.60626
1632.31	2.97586
1632.46	5.85754
1632.62	4.63602
1632.78	4.01584
1632.93	3.77969
1633.09	3.6449
1633.25	1.741
1633.4	3.09006
1633.56	4.05807
1633.72	2.82547
1633.87	8.97839
1634.03	4.7634
1634.19	4.91913
1634.34	7.194
1634.5	3.612
1634.65	6.5459
1634.81	4.30429
1634.97	1.43985
1635.12	6.20242
1635.28	5.06952
1635.44	1.45981
1635.59	6.92239
1635.75	2.38177
1635.91	8.03156
1636.06	7.27539
1636.22	3.87079
1636.37	9.52625
1636.53	5.67746
1636.69	13.4515
1636.84	3.94366
1637	5.6174
1637.15	4.26315
1637.31	2.6069
1637.47	4.11307
1637.62	5.48434
1637.78	1.47339
1637.94	7.91409
1638.09	3.3295
1638.25	2.83972
1638.41	3.54688
1638.56	2.49362
1638.72	8.87769
1638.87	3.90613
1639.03	2.60873
1639.19	4.74887
1639.34	1.53107
1639.5	0.625671
1639.65	2.21991
1639.81	7.79962
1639.97	4.86139
1640.12	5.88483
1640.28	5.02042
1640.43	1.71628
1640.59	4.78976
1640.75	2.51828
1640.9	2.48099
1641.06	5.08646
1641.22	3.00214
1641.37	4.98264
1641.53	4.32013
1641.68	7.69205
1641.84	3.25363
1642	5.64801
1642.15	7.18552
1642.31	3.76181
1642.46	5.66364
1642.62	2.52557
1642.78	6.07886
1642.93	7.3674
1643.09	5.10815
1643.24	3.52957
1643.4	4.71494
1643.56	6.48413
1643.71	1.76306
1643.87	5.83182
1644.02	5.01923
1644.18	6.15607
1644.33	4.18939
1644.49	5.42133
1644.65	1.92703
1644.8	4.27039
1644.96	3.0123
1645.11	1.77185
1645.27	7.72879
1645.43	4.49356
1645.58	3.86322
1645.74	5.98441
1645.89	3.78848
1646.05	4.88586
1646.21	10.2606
1646.36	4.68924
1646.52	11.2613
1646.67	-0.0268555
1646.83	4.65625
1646.98	3.76532
1647.14	5.65863
1647.3	5.48074
1647.45	2.13028
1647.61	3.08661
1647.76	3.13971
1647.92	6.98474
1648.08	4.67676
1648.23	4.46225
1648.39	6.62888
1648.54	4.59567
1648.7	6.25058
1648.85	1.52887
1649.01	4.20914
1649.17	6.72778
1649.32	-0.191956
1649.48	7.08411
1649.63	3.61761
1649.79	7.62476
1649.94	8.89322
1650.1	3.18881
1650.26	2.08051
1650.41	5.97873
1650.57	9.85184
1650.72	7.38165
1650.88	5.87222
1651.03	4.13452
1651.19	10.4344
1651.35	6.74985
1651.5	9.08569
1651.66	4.06589
1651.81	7.63297
1651.97	9.51984
1652.12	2.78403
1652.28	6.77289
1652.43	7.11401
1652.59	1.72311
1652.75	18.132
1652.9	2.53464
1653.06	6.57764
1653.21	0.727539
1653.37	5.73117
1653.52	2.15594
1653.68	5.08575
1653.83	4.55542
1653.99	7.26279
1654.15	8.34686
1654.3	4.38556
1654.46	3.00885
1654.61	6.52951
1654.77	8.16977
1654.92	8.12875
1655.08	4.82703
1655.23	6.29123
1655.39	3.53802
1655.55	4.31827
1655.7	2.92007
1655.86	0.517059
1656.01	1.85083
1656.17	5.00522
1656.32	7.0929
1656.48	-0.620331
1656.63	7.11938
1656.79	10.4284
1656.94	7.06464
1657.1	3.69339
1657.25	7.2233
1657.41	4.42242
1657.57	9.22504
1657.72	10.063
1657.88	10.2227
1658.03	5.83142
1658.19	6.84375
1658.34	10.4597
1658.5	14.1858
1658.65	4.52609
1658.81	6.60242
1658.96	3.13647
1659.12	5.98431
1659.27	0.899597
1659.43	8.48685
1659.58	5.07358
1659.74	4.83545
1659.89	8.19562
1660.05	7.79205
1660.21	4.72583
1660.36	2.47784
1660.52	5.16525
1660.67	5.83273
1660.83	9.24133
1660.98	4.62399
1661.14	9.60336
1661.29	9.3367
1661.45	3.32846
1661.6	8.25311
1661.76	5.0477
1661.91	8.45093
1662.07	8.33786
1662.22	3.18088
1662.38	3.14001
1662.53	10.2684
1662.69	5.89633
1662.84	3.41608
1663	2.1232
1663.15	4.56262
1663.31	10.5702
1663.46	3.63565
1663.62	8.87994
1663.77	5.33762
1663.93	7.19583
1664.08	9.68857
1664.24	8.05701
1664.39	5.18646
1664.55	6.42374
1664.7	5.2699
1664.86	6.15253
1665.02	7.83109
1665.17	4.41937
1665.33	6.53851
1665.48	9.01193
1665.64	0.186554
1665.79	6.91458
1665.95	3.6358
1666.1	4.37485
1666.26	4.89151
1666.41	2.44278
1666.56	1.09668
1666.72	2.66241
1666.87	5.62946
1667.03	9.14261
1667.18	2.97757
1667.34	-0.0290222
1667.5	3.81989
1667.65	5.32944
1667.81	5.4537
1667.96	0.567017
1668.11	6.22195
1668.27	3.05304
1668.42	7.23239
1668.58	3.16772
1668.73	-1.78183
1668.89	7.25089
1669.04	4.95816
1669.2	4.46927
1669.35	5.52997
1669.51	9.23669
1669.66	3.6929
1669.82	5.05725
1669.97	4.95984
1670.13	-1.38358
1670.28	6.32471
1670.44	6.99991
1670.59	0.314178
1670.75	9.33093
1670.9	4.6041
1671.06	5.29715
1671.21	4.61713
1671.37	-0.0814514
1671.52	3.72736
1671.68	2.35065
1671.83	5.6152
1671.99	4.70978
1672.14	5.86868
1672.29	8.76584
1672.45	2.00958
1672.6	2.86227
1672.76	4.13675
1672.91	1.47723
1673.07	9.25992
1673.22	5.30676
1673.38	1.70044
1673.53	4.55469
1673.69	6.61398
1673.84	6.55411
1674	7.1842
1674.15	4.92844
1674.31	4.59335
1674.46	2.66071
1674.61	6.79529
1674.77	5.78604
1674.92	6.46057
1675.08	8.95615
1675.23	1.35007
1675.39	2.55106
1675.54	5.56488
1675.7	5.05237
1675.85	1.03207
1676.01	8.65311
1676.16	8.11945
1676.31	2.9198
1676.47	3.88907
1676.62	3.48267
1676.78	5.66397
1676.93	5.83765
1677.09	8.31973
1677.24	1.32321
1677.4	1.42923
1677.55	5.92712
1677.71	4.84247
1677.86	4.14774
1678.02	6.2381
1678.17	4.358
1678.32	2.84436
1678.48	4.70972
1678.63	6.00439
1678.79	5.91483
1678.94	6.12204
1679.1	5.12268
1679.25	4.2056
1679.41	5.69757
1679.56	0.656708
1679.71	0.0750732
1679.87	2.60178
1680.02	5.24664
1680.18	5.31573
1680.33	0.845612
1680.49	4.38339
1680.64	2.13196
1680.79	-0.164825
1680.95	3.96814
1681.1	3.52075
1681.26	3.63788
1681.41	2.16742
1681.57	-1.35553
1681.72	3.81616
1681.88	3.77512
1682.03	12.633
1682.18	4.47186
1682.34	-0.708801
1682.49	-1.74908
1682.65	7.68036
1682.8	2.33441
1682.96	0.428894
1683.11	2.77548
1683.26	2.52756
1683.42	3.29077
1683.57	-1.19736
1683.73	1.33856
1683.88	-0.925903
1684.03	3.57208
1684.19	8.09097
1684.34	2.09393
1684.5	-3.67596
1684.65	6.55521
1684.81	3.1387
1684.96	1.12109
1685.12	3.43951
1685.27	5.42172
1685.42	-0.171051
1685.58	6.95984
1685.73	1.42691
1685.89	1.4938
1686.04	4.80386
1686.19	1.43478
1686.35	4.62143
1686.5	5.46335
1686.66	5.34534
1686.81	-0.035675
1686.96	3.4949
1687.12	2.07495
1687.27	5.8222
1687.43	3.81204
1687.58	2.41916
1687.74	9.19553
1687.89	0.947601
1688.04	1.43829
1688.2	0.210205
1688.35	2.50534
1688.5	-1.67291
1688.66	3.73248
1688.81	0.587891
1688.97	1.86099
1689.12	-0.337189
1689.27	2.73578
1689.43	-0.512695
1689.58	0.910217
1689.74	2.29254
1689.89	2.33502
1690.05	0.468933
1690.2	1.8465
1690.35	0.177246
1690.51	1.7951
1690.66	2.64716
1690.81	-2.18396
1690.97	-0.0126648
1691.12	1.57013
1691.28	2.14673
1691.43	0.444336
1691.58	3.83646
1691.74	5.36105
1691.89	-0.815338
1692.05	0.00836182
1692.2	2.15198
1692.35	1.59537
1692.51	1.73544
1692.66	5.08176
1692.82	1.01761
1692.97	6.01788
1693.12	3.82944
1693.28	3.02036
1693.43	0.691437
1693.58	2.78186
1693.74	2.24734
1693.89	3.85309
1694.05	-0.33429
1694.2	2.23404
1694.35	1.83093
1694.51	4.17963
1694.66	2.39517
1694.81	2.86606
1694.97	1.21014
1695.12	-0.0133057
1695.28	1.85974
1695.43	4.18866
1695.58	2.86938
1695.74	1.50125
1695.89	1.14175
1696.04	4.69757
1696.2	0.347931
1696.35	1.71664
1696.51	4.04953
1696.66	0.899384
1696.81	0.594666
1696.97	0.986877
1697.12	3.64938
1697.27	-0.898071
1697.43	2.38467
1697.58	-0.012146
1697.74	-0.565155
1697.89	0.501068
1698.04	1.12537
1698.2	0.513031
1698.35	2.56348
1698.5	3.83148
1698.66	0.890625
1698.81	0.303345
1698.96	2.66711
1699.12	2.89801
1699.27	0.126526
1699.42	1.24081
1699.58	2.15948
1699.73	1.29639
1699.88	-0.722107
1700.04	-0.304962
1700.19	-0.3284
1700.35	2.34012
1700.5	3.14114
1700.65	0.323822
1700.81	2.10245
1700.96	4.16885
1701.11	1.29608
1701.27	-0.685547
1701.42	-0.253998
1701.57	3.95917
1701.73	0.35144
1701.88	2.03986
1702.03	1.07791
1702.19	1.09604
1702.34	1.10437
1702.49	0.743378
1702.65	-0.426239
1702.8	0.589203
1702.95	-0.258972
1703.11	1.55841
1703.26	-0.529877
1703.42	1.00433
1703.57	-1.38031
1703.72	-1.21936
1703.88	1.40439
1704.03	1.63754
1704.18	0.678955
1704.33	0.175507
1704.49	2.81448
1704.64	2.70535
1704.79	3.68198
1704.95	2.88849
1705.1	4.04956
1705.16	5.3985
1705.32	-2.91632
1705.47	4.7023
1705.63	0.982666
1705.78	2.95975
1705.94	-0.223846
1706.1	0.744415
1706.25	3.44412
1706.41	0.890594
1706.56	-0.526337
1706.72	-0.521149
1706.88	3.05963
1707.03	2.96396
1707.19	2.69949
1707.34	1.47647
1707.5	-0.820435
1707.65	-0.347687
1707.81	-0.425903
1707.97	1.34012
1708.12	0.217468
1708.28	-1.01843
1708.43	1.74741
1708.59	1.72903
1708.74	4.35342
1708.9	4.01395
1709.06	-1.01535
1709.21	0.0380249
1709.37	-2.51346
1709.52	-3.25143
1709.68	6.10596
1709.83	1.99185
1709.99	1.06058
1710.15	-3.21686
1710.3	0.0466614
1710.46	-2.65775
1710.61	-2.94397
1710.77	3.37393
1710.92	4.65378
1711.08	-0.996887
1711.23	-0.562469
1711.39	-2.97299
1711.55	0.175323
1711.7	-0.937683
1711.86	3.61142
1712.01	-0.883484
1712.17	-3.48776
1712.32	0.0732422
1712.48	-1.70682
1712.63	-1.77844
1712.79	0.643951
1712.95	-0.97937
1713.1	-2.15701
1713.26	-0.718933
1713.41	5.67215
1713.57	12.1271
1713.72	2.83801
1713.88	4.88721
1714.04	3.92941
1714.19	-1.35489
1714.35	0.860229
1714.5	0.797028
1714.66	-3.22272
1714.81	-0.818146
1714.97	-1.18716
1715.12	-1.84836
1715.28	-1.33517
1715.43	4.23257
1715.59	-1.17209
1715.74	0.35202
1715.9	2.43973
1716.06	-3.78128
1716.21	-2.94238
1716.37	-1.53491
1716.52	0.843719
1716.68	4.25262
1716.83	-2.52219
1716.99	-1.13455
1717.14	-0.327789
1717.3	-4.20859
1717.46	1.45901
1717.61	1.08749
1717.77	0.502777
1717.92	-1.04047
1718.08	-4.26923
1718.23	0.664185
1718.39	0.412018
1718.54	-1.79654
1718.7	4.41986
1718.85	2.34
1719.01	4.05151
1719.16	3.6257
1719.32	1.49313
1719.47	2.02884
1719.63	7.14969
1719.78	1.25024
1719.94	-1.63913
1720.09	-0.861725
1720.25	-0.345398
1720.41	0.646423
1720.56	-1.88846
1720.72	2.01263
1720.87	2.06345
1721.03	5.4136
1721.18	-3.8653
1721.34	-4.62735
1721.49	-1.55957
1721.65	-1.33258
1721.8	-1.71274
1721.96	-2.51019
1722.11	4.21396
1722.27	0.624359
1722.42	-3.13663
1722.58	-0.987396
1722.73	1.26624
1722.89	1.54373
1723.04	-3.90805
1723.2	1.4541
1723.35	5.40158
1723.51	-1.72144
1723.66	2.53574
1723.82	1.16403
1723.97	-1.69461
1724.13	-1.56033
1724.28	1.80545
1724.44	-0.984406
1724.6	1.15158
1724.75	2.31113
1724.9	0.0894775
1725.06	-1.38428
1725.21	-3.23599
1725.37	-2.01743
1725.53	3.57861
1725.68	-0.284882
1725.84	4.94202
1725.99	2.97015
1726.14	1.15994
1726.3	-2.24786
1726.45	-0.617249
1726.61	0.715729
1726.77	-2.31076
1726.92	-0.0747986
1727.07	-2.13223
1727.23	-3.32281
1727.38	2.29495
1727.54	5.25357
1727.7	3.14575
1727.85	-0.857147
1728	-2.51895
1728.16	-1.65793
1728.31	0.877686
1728.47	-0.939819
1728.62	-1.99295
1728.78	1.66928
1728.93	-0.234894
1729.09	3.21008
1729.24	0.85321
1729.4	4.21085
1729.55	0.49411
1729.71	1.6701
1729.86	-2.39282
1730.02	5.53857
1730.17	1.78275
1730.33	2.92969
1730.48	0.43338
1730.64	2.93625
1730.79	-0.274628
1730.95	-0.223328
1731.1	3.32629
1731.26	4.41357
1731.41	3.09186
1731.57	1.64108
1731.72	2.01178
1731.88	0.615631
1732.03	0.488373
1732.18	-0.319946
1732.34	2.00003
1732.49	1.89047
1732.65	3.36194
1732.8	-1.82654
1732.96	2.55222
1733.11	2.73276
1733.27	-0.514923
1733.42	0.787537
1733.58	-3.23746
1733.73	-0.7677
1733.89	1.95532
1734.04	4.25598
1734.2	3.55823
1734.35	1.51031
1734.51	0.361542
1734.66	3.87619
1734.82	-0.721039
1734.97	1.25534
1735.12	0.114136
1735.28	-1.67764
1735.43	0.767303
1735.59	-0.5242
1735.74	0.531158
1735.9	2.27692
1736.05	-0.246307
1736.21	-0.454407
1736.36	-1.56839
1736.52	-2.56482
1736.67	-5.08127
1736.82	2.07822
1736.98	3.14301
1737.13	0.439423
1737.29	1.98456
1737.44	5.90604
1737.6	7.32883
1737.75	-0.759155
1737.91	0.240723
1738.06	2.99423
1738.21	4.03165
1738.37	4.35342
1738.52	2.51578
1738.68	3.38135
1738.83	-0.158447
1738.99	4.56509
1739.14	1.52374
1739.3	-0.0959167
1739.45	-1.28598
1739.61	3.05743
1739.76	1.79593
1739.91	13.6985
1740.07	3.27548
1740.22	0.788208
1740.38	0.532654
1740.53	2.1593
1740.69	3.96109
1740.84	1.67923
1741	1.01245
1741.15	1.00092
1741.3	3.57132
1741.46	0.14917
1741.61	4.02646
1741.77	3.8934
1741.92	2.37292
1742.08	2.76263
1742.23	1.87344
1742.38	2.21118
1742.54	1.94031
1742.69	-0.112823
1742.85	3.75513
1743	4.16934
1743.16	-3.19345
1743.31	5.11069
1743.46	0.127594
1743.62	0.776062
1743.77	-0.678009
1743.93	-0.294159
1744.08	7.95468
1744.24	4.81287
1744.39	2.70563
1744.54	-2.14731
1744.7	4.34479
1744.85	6.06967
1745.01	1.12607
1745.16	-0.272858
1745.32	-1.74194
1745.47	2.2392
1745.62	0.24469
1745.78	3.80133
1745.93	0.175659
1746.09	1.08041
1746.24	2.88184
1746.39	-3.13129
1746.55	2.99753
1746.7	-0.85968
1746.86	0.979309
1747.01	2.69016
1747.16	-5.23294
1747.32	3.90442
1747.47	6.66925
1747.63	0.405609
1747.78	2.24225
1747.94	-1.41571
1748.09	0.53949
1748.24	-0.215393
1748.4	0.661835
1748.55	1.97562
1748.71	1.10373
1748.86	-2.67651
1749.01	0.635162
1749.17	1.74792
1749.32	11.0404
1749.48	0.298981
1749.63	-1.24066
1749.78	0.289917
1749.94	2.43826
1750.09	-0.206451
1750.25	2.88196
1750.4	-0.880432
1750.55	4.71164
1750.71	2.47098
1750.86	-0.457428
1751.02	1.9808
1751.17	1.66214
1751.32	3.66547
1751.48	1.10696
1751.63	0.174835
1751.79	1.48672
1751.94	2.62863
1752.09	3.7847
1752.25	1.55319
1752.4	1.00604
1752.56	-2.73709
1752.71	3.47125
1752.86	0.312225
1753.02	5.31845
1753.17	3.02399
1753.33	3.10394
1753.48	-0.49527
1753.63	5.78986
1753.79	0.405304
1753.94	3.00803
1754.09	1.91611
1754.25	4.60544
1754.4	-0.165833
1754.56	2.9617
1754.71	-0.974762
1754.86	0.169861
1755.02	-0.735352
1755.17	1.30063
1755.33	6.07196
1755.48	5.24124
1755.63	1.54321
1755.79	3.79187
1755.94	-2.17679
1756.09	4.34744
1756.25	5.47766
1756.4	-2.21152
1756.55	0.361237
1756.71	5.61691
1756.86	1.3064
1757.02	2.09842
1757.17	4.99823
1757.32	-0.998322
1757.48	0.210358
1757.63	-1.4794
1757.78	6.1788
1757.94	2.20126
1758.09	2.26053
1758.25	0.0150757
1758.4	0.0826111
1758.55	0.917664
1758.71	0.721649
1758.86	2.13855
1759.01	1.96191
1759.17	0.799408
1759.32	2.21509
1759.47	0.773987
1759.63	3.92603
1759.78	-1.37509
1759.93	-1.14273
1760.09	6.86737
1760.24	7.04837
1760.4	-2.28342
1760.55	-3.03232
1760.7	-1.26767
1760.86	1.54965
1761.01	-1.4567
1761.16	4.80548
1761.32	2.07297
1761.47	2.82443
1761.62	1.31577
1761.78	-3.20724
1761.93	-1.14124
1762.09	3.37857
1762.24	-1.77963
1762.39	3.59647
1762.54	4.61163
1762.7	-2.15723
1762.85	0.949463
1763.01	2.31241
1763.16	2.53967
1763.31	0.522369
1763.47	1.8558
1763.62	2.98059
1763.77	1.42993
1763.93	3.57062
1764.08	0.728027
1764.23	1.79251
1764.39	3.7265
1764.54	-0.597168
1764.69	4.04919
1764.85	0.614532
1765	7.52197
1765.15	0.193909
1765.31	0.214172
1765.46	0.198822
1765.61	0.171539
1765.77	1.0032
1765.92	6.93774
1766.07	2.40128
1766.23	2.14084
1766.38	-1.04654
1766.53	2.13681
1766.69	-0.32309
1766.84	0.911011
1766.99	0.909149
1767.15	-0.945923
1767.3	4.37372
1767.45	2.62405
1767.61	-0.178101
1767.76	1.3967
1767.91	0.768768
1768.07	5.55093
1768.22	2.6629
1768.37	4.06113
1768.53	7.73294
1768.68	2.61316
1768.83	5.53641
1768.99	-0.648712
1769.14	-0.185974
1769.29	0.305115
1769.44	2.72046
1769.6	3.64896
1769.75	1.87131
1769.9	2.73254
1770.06	-0.57373
1770.21	2.14755
1770.36	0.565704
1770.52	1.59122
1770.67	1.35568
1770.82	-2.7663
1770.98	1.78107
1771.13	0.543671
1771.28	0.329956
1771.44	-2.59647
1771.59	0.408752
1771.74	1.04721
1771.9	2.76813
1772.05	2.74905
1772.2	-2.29727
1772.35	2.14096
1772.51	-0.0450439
1772.66	8.18134
1772.81	0.0673523
1772.97	-1.3172
1773.12	-0.643005
1773.27	1.65741
1773.43	0.0393982
1773.58	-1.05157
1773.73	2.42697
1773.88	2.52466
1774.04	1.00925
1774.19	-2.02515
1774.34	3.08817
1774.5	3.84045
1774.65	0.403198
1774.8	0.363281
1774.96	-0.453064
1775.11	3.60657
1775.26	-1.86942
1775.41	0.142822
1775.57	-0.630066
1775.72	-0.351501
1775.87	5.30109
1776.03	-1.46292
1776.18	0.616974
1776.33	-2.75537
1776.48	4.20731
1776.64	0.832001
1776.79	3.36938
1776.94	-0.889343
1777.1	0.831696
1777.25	-1.94083
1777.4	0.812714
1777.56	0.690643
1777.71	2.8284
1777.86	5.07159
1778.01	6.21786
1778.17	4.77338
1778.32	-0.627594
1778.47	1.85608
1778.62	0.434265
1778.78	-0.874878
1778.93	3.4809
1779.08	6.29309
1779.24	5.08954
1779.39	-2.04367
1779.54	1.42395
1779.69	0.535248
1779.85	0.342377
1780	3.76932
1780.15	0.0475464
1780.31	-0.368652
1780.46	4.34796
1780.61	-1.66254
1780.76	5.66898
1780.92	0.900421
1781.07	0.384125
1781.22	8.82327
1781.37	-0.426239
1781.53	0.0122375
1781.68	0.275146
1781.83	0.275452
1781.98	4.46689
1782.14	-1.36197
1782.29	1.38428
1782.44	2.68332
1782.59	1.66177
1782.75	3.22208
1782.9	1.02368
1783.05	-2.02188
1783.21	1.61612
1783.36	2.87662
1783.51	-1.32181
1783.66	1.63983
1783.82	1.56641
1783.97	1.9115
1784.12	-0.345154
1784.27	-0.567413
1784.43	-0.827057
1784.58	-2.47153
1784.73	-3.89392
1784.88	2.88306
1785.04	0.148254
1785.19	-2.2168
1785.34	-0.416168
1785.49	1.47302
1785.65	-3.25034
1785.8	0.0617981
1785.95	2.41315
1786.1	2.71506
1786.26	4.25388
1786.41	1.0477
1786.56	2.42563
1786.71	2.32068
1786.87	-0.09198
1787.02	1.13037
1787.17	-3.08847
1787.32	1.58188
1787.48	3.58682
1787.63	2.38153
1787.78	1.83237
1787.93	9.75702
1788.09	-1.03934
1788.24	2.73993
1788.39	2.60333
1788.54	2.15808
1788.69	1.11249
1788.85	3.84647
1789	-3.15472
1789.15	-1.18378
1789.3	0.265594
1789.46	-0.44165
1789.61	3.69373
1789.76	2.08347
1789.91	0.80603
1790.07	-5.48959
1790.22	-0.144714
1790.37	3.18073
1790.52	1.71652
1790.67	5.33707
1790.83	0.219177
1790.98	-3.15823
1791.13	3.96143
1791.28	4.13257
1791.44	-1.84338
1791.59	3.37943
1791.74	-2.73886
1791.89	-0.327606
1792.05	-1.15973
1792.2	3.18384
1792.35	-0.230347
1792.5	3.85092
1792.65	-0.858063
1792.81	-1.99881
1792.96	1.63812
1793.11	-3.23093
1793.26	8.44467
1793.42	0.399963
1793.57	-3.37378
1793.72	5.328
1793.87	2.80701
1794.02	1.5994
1794.18	1.33017
1794.33	-1.05896
1794.48	-0.911621
1794.63	-1.52142
1794.78	-1.31833
1794.94	1.47211
1795.09	0.533264
1795.24	-0.86615
1795.39	-1.83258
1795.54	0.442322
1795.7	2.68573
1795.85	-1.8049
1796	2.32813
1796.15	0.377625
1796.31	0.936096
1796.46	-0.366058
1796.61	2.24219
1796.76	0.391785
1796.91	-0.642029
1797.07	-2.51929
1797.22	4.48618
1797.37	-0.342743
1797.52	0.0710144
1797.67	2.88788
1797.83	3.27765
1797.98	-0.506012
1798.13	-1.00104
1798.28	-2.5509
1798.43	-2.57135
1798.59	-1.88034
1798.74	-0.698303
1798.89	1.95923
1799.04	-0.0359802
1799.19	-0.385834
1799.34	2.22641
1799.5	-3.05045
1799.65	12.6632
1799.8	2.16583
1799.95	-1.99805
1800.1	3.04584
1800.26	-2.36963
1800.41	-1.46524
1800.56	-2.74316
1800.71	-4.11652
1800.86	0.401672
1801.02	-2.12231
1801.17	-1.46118
1801.32	-1.83707
1801.47	-0.967957
1801.62	-3.32513
1801.78	1.38916
1801.93	3.63132
1802.08	-3.08731
1802.23	0.385406
1802.38	1.57339
1802.53	-1.01923
1802.69	-1.24429
1802.84	5.03754
1802.99	4.27472
1803.14	3.15131
1803.29	1.75891
1803.44	2.62891
1803.6	-4.25195
1803.75	2.71033
1803.9	-0.903442
1804.05	8.6362
1804.2	1.26779
1804.35	-2.76022
1804.51	2.4613
1804.66	4.55957
1804.81	-2.35477
1804.96	-0.923706
1805.11	-2.88013
1805.26	2.35294
1805.42	-0.316071
1805.57	4.18552
1805.72	-0.395538
1805.87	-1.5997
1806.02	-0.0232239
1806.18	-1.18649
1806.33	-3.33493
1806.48	0.302979
1806.63	-1.3855
1806.78	0.930695
1806.93	-3.95599
1807.08	4.39459
1807.24	1.52347
1807.39	2.78235
1807.54	-2.49924
1807.69	-2.66602
1807.84	0.905884
1807.99	2.04538
1808.15	-0.38736
1808.3	0.644714
1808.45	0.666779
1808.6	0.578583
1808.75	-2.79495
1808.9	3.72897
1809.06	2.07504
1809.21	3.76151
1809.36	-0.794617
1809.51	4.10452
1809.66	-1.39603
1809.81	-1.3829
1809.96	3.75058
1810.12	0.78717
1810.27	3.31665
1810.42	-2.40408
1810.57	0.899841
1810.72	-3.52512
1810.87	-0.221863
1811.02	3.58032
1811.18	1.9437
1811.33	1.013
1811.48	0.58606
1811.63	-0.921234
1811.78	-2.69983
1811.93	3.21286
1812.08	1.53677
1812.24	-0.632019
1812.39	1.74655
1812.54	-3.03595
1812.69	2.14304
1812.84	-0.260468
1812.99	-0.270447
1813.14	4.25711
1813.29	2.78748
1813.45	7.25977
1813.6	3.24619
1813.75	0.70636
1813.9	2.01599
1814.05	3.39072
1814.2	-3.31775
1814.35	-1.47778
1814.51	1.5379
1814.66	3.83511
1814.81	5.40976
1814.96	-0.368927
1815.11	3.11453
1815.26	-1.31573
1815.41	-1.15646
1815.56	-1.22961
1815.72	3.9093
1815.87	5.97153
1816.02	-1.02817
1816.17	3.3129
1816.32	0.59552
1816.47	-1.35388
1816.62	1.71674
1816.77	5.19193
1816.93	1.61908
1817.08	-2.0871
1817.23	-1.47601
1817.38	-1.98679
1817.53	5.77661
1817.68	-2.19025
1817.83	-0.0584106
1817.98	3.69485
1818.13	5.02557
1818.29	-2.69394
1818.44	2.17117
1818.59	3.12631
1818.74	0.0121765
1818.89	4.23853
1819.04	1.31046
1819.19	-0.0962219
1819.34	1.68103
1819.49	8.56671
1819.65	0.906097
1819.8	-1.39041
1819.95	2.19293
1820.1	-0.864594
1820.25	2.79562
1820.4	0.508026
1820.55	4.10583
1820.7	-0.0688171
1820.85	-1.19266
1821.01	1.44083
1821.16	6.07574
1821.31	20.3258
1821.46	-0.86264
1821.61	4.71045
1821.76	2.4476
1821.91	-1.00461
1822.06	-0.0723267
1822.21	5.44385
1822.36	2.16754
1822.51	2.57428
1822.66	-0.00439453
1822.82	0.537292
1822.97	0.298096
1823.12	1.52396
1823.27	3.62167
1823.42	2.81326
1823.57	0.687347
1823.72	1.61096
1823.87	-2.36539
1824.02	-1.23367
1824.17	2.02991
1824.33	-1.29889
1824.48	-0.0402222
1824.63	1.77045
1824.78	2.9191
1824.93	11.1889
1825.08	0.777832
1825.23	-3.09268
1825.38	5.00146
1825.53	1.57294
1825.68	1.07132
1825.83	4.83618
1825.98	0.226227
1826.14	2.42993
1826.29	3.92609
1826.44	7.23636
1826.59	1.07819
1826.74	-0.109741
1826.89	2.49014
1827.04	-0.100159
1827.19	1.68088
1827.34	7.09775
1827.49	3.20618
1827.64	1.01453
1827.79	5.35361
1827.94	3.91614
1828.09	2.01382
1828.25	6.48764
1828.4	-0.593933
1828.55	0.342102
1828.7	8.19662
1828.85	1.81207
1829	1.65451
1829.15	1.98572
1829.3	3.5665
1829.45	4.64105
1829.6	0.307953
1829.75	5.13431
1829.9	5.89835
1830.05	6.85681
1830.2	4.65134
1830.36	0.123535
1830.51	3.96585
1830.66	3.5752
1830.81	2.20496
1830.96	0.519043
1831.11	6.2041
1831.26	4.59229
1831.41	1.33801
1831.56	3.12036
1831.71	5.63907
1831.86	4.39844
1832.01	2.82101
1832.16	2.68106
1832.31	-1.17886
1832.46	0.172089
1832.61	1.77621
1832.76	4.8302
1832.91	4.61435
1833.06	1.90701
1833.21	9.99823
1833.37	0.980927
1833.52	2.23764
1833.67	1.75656
1833.82	2.97232
1833.97	1.98251
1834.12	-0.215363
1834.27	2.07135
1834.42	1.02713
1834.57	4.22202
1834.72	4.11127
1834.87	2.81128
1835.02	6.44019
1835.17	1.43658
1835.32	3.33853
1835.47	3.72549
1835.62	6.82233
1835.77	2.9527
1835.92	-3.31473
1836.07	2.05313
1836.22	5.32416
1836.37	4.5163
1836.52	5.93369
1836.67	1.56573
1836.83	3.68304
1836.98	3.50531
1837.13	0.253448
1837.28	-0.58905
1837.43	2.63892
1837.58	6.20642
1837.73	0.0210266
1837.88	4.27032
1838.03	0.692963
1838.18	2.31384
1838.33	0.22052
1838.48	7.02368
1838.63	6.50882
1838.78	2.52307
1838.93	0.618134
1839.08	3.21939
1839.23	3.96643
1839.38	2.02185
1839.53	3.92554
1839.68	1.59525
1839.83	5.02042
1839.98	3.42575
1840.13	3.25882
1840.28	6.65887
1840.43	5.64948
1840.58	5.85834
1840.73	6.38248
1840.88	10.7562
1841.03	5.89539
1841.18	5.5799
1841.33	6.87976
1841.48	2.79379
1841.63	3.19717
1841.78	2.18817
1841.93	1.46027
1842.08	5.32742
1842.23	1.52429
1842.38	2.82773
1842.53	7.39026
1842.68	-0.685944
1842.83	5.32547
1842.98	0.079071
1843.13	4.00809
1843.28	4.06238
1843.43	3.05582
1843.58	11.0131
1843.73	6.27597
1843.88	2.35364
1844.03	0.0481262
1844.18	4.71207
1844.33	4.43182
1844.48	7.28635
1844.63	7.9151
1844.78	1.52866
1844.93	3.42526
1845.08	8.03314
1845.23	3.21832
1845.38	1.4371
1845.53	4.85449
1845.68	1.6785
1845.83	6.61798
1845.98	2.92172
1846.13	1.1394
1846.28	4.0831
1846.43	4.13657
1846.58	3.72314
1846.73	4.11603
1846.88	3.94943
1847.03	2.26849
1847.18	2.3201
1847.33	3.42154
1847.48	5.23206
1847.63	6.03278
1847.78	3.43716
1847.93	2.86758
1848.08	-2.02747
1848.23	1.26917
1848.38	11.8597
1848.53	3.92014
1848.68	3.28818
1848.83	9.81189
1848.98	2.00296
1849.13	3.33823
1849.28	1.43033
1849.43	10.4731
1849.58	7.8364
1849.73	4.8457
1849.88	6.3703
1850.03	5.51749
1850.18	7.77567
1850.33	4.67465
1850.48	9.91861
1850.63	5.03296
1850.78	1.74518
1850.93	3.99515
1851.08	3.95236
1851.23	5.44244
1851.38	5.25732
1851.53	2.57309
1851.68	7.67996
1851.83	6.26852
1851.98	4.5784
1852.13	2.64883
1852.27	3.61652
1852.42	5.03162
1852.57	3.64706
1852.72	2.53891
1852.87	9.94424
1853.02	3.20459
1853.17	3.87003
1853.32	5.83835
1853.47	3.03683
1853.62	10.8144
1853.77	1.59488
1853.92	10.2124
1854.07	4.75464
1854.22	14.425
1854.37	1.76373
1854.52	8.75314
1854.67	3.73578
1854.82	4.17426
1854.97	3.64441
1855.12	5.09869
1855.27	2.20441
1855.42	7.34576
1855.57	3.30545
1855.72	5.84219
1855.87	3.16595
1856.01	5.14438
1856.16	7.38013
1856.31	4.1485
1856.46	6.39545
1856.61	4.67123
1856.76	9.51047
1856.91	3.97043
1857.06	4.64496
1857.21	6.98343
1857.36	3.31934
1857.51	1.55072
1857.66	-0.0383911
1857.81	9.19031
1857.96	6.29584
1858.11	5.3606
1858.26	9.23529
1858.41	0.82486
1858.56	7.68716
1858.71	4.44785
1858.86	6.03488
1859	8.23065
1859.15	5.87701
1859.3	8.92969
1859.45	9.42889
1859.6	14.3449
1859.75	4.0939
1859.9	3.13269
1860.05	4.83127
1860.2	5.2468
1860.35	4.91663
1860.5	5.58322
1860.65	6.06479
1860.8	5.70786
1860.95	5.59485
1861.1	4.43454
1861.24	3.98926
1861.39	5.62622
1861.54	5.77985
1861.69	7.49307
1861.84	13.9262
1861.99	9.8421
1862.14	4.12247
1862.29	7.31018
1862.44	4.53323
1862.59	7.80902
1862.74	4.66534
1862.89	8.71494
1863.04	3.73264
1863.18	8.25928
1863.33	3.50906
1863.48	11.8643
1863.63	6.00235
1863.78	3.92972
1863.93	3.6907
1864.08	8.01505
1864.23	6.22067
1864.38	6.74997
1864.53	5.15009
1864.68	3.08694
1864.83	6.17645
1864.97	6.19739
1865.12	8.08908
1865.27	7.75656
1865.42	6.82068
1865.57	5.7916
1865.72	9.07584
1865.87	8.25241
1866.02	2.36884
1866.17	8.96414
1866.32	1.39407
1866.47	4.04922
1866.61	6.66772
1866.76	3.27701
1866.91	4.67566
1867.06	4.46017
1867.21	4.93353
1867.36	9.05203
1867.51	3.14554
1867.66	6.99335
1867.81	5.53247
1867.96	7.48102
1868.1	0.942566
1868.25	4.75226
1868.4	5.08246
1868.55	1.86075
1868.7	3.31848
1868.85	7.48019
1869	4.18939
1869.15	4.54663
1869.3	2.60703
1869.45	4.10074
1869.59	9.577
1869.74	6.06723
1869.89	7.41266
1870.04	3.97031
1870.19	11.751
1870.34	5.48492
1870.49	2.80804
1870.64	3.57068
1870.79	10.9169
1870.93	6.26096
1871.08	1.45337
1871.23	7.58981
1871.38	5.75879
1871.53	9.69226
1871.68	3.46335
1871.83	3.03363
1871.98	3.3895
1872.13	0.286926
1872.27	1.29059
1872.42	3.17633
1872.57	3.81891
1872.72	3.08527
1872.87	5.33862
1873.02	4.68027
1873.17	5.86859
1873.32	2.30048
1873.46	9.819
1873.61	5.83627
1873.76	4.03918
1873.91	2.16415
1874.06	7.70929
1874.21	6.38074
1874.36	7.58704
1874.51	2.87015
1874.66	3.94888
1874.8	6.02115
1874.95	2.00946
1875.1	8.32895
1875.25	5.36389
1875.4	1.3577
1875.55	-0.494049
1875.7	2.27487
1875.84	1.66138
1875.99	10.7097
1876.14	4.82825
1876.29	1.52274
1876.44	3.61716
1876.59	7.45367
1876.74	2.75702
1876.88	9.55405
1877.03	5.6499
1877.18	1.46854
1877.33	2.33282
1877.48	1.33078
1877.63	-0.554932
1877.78	8.39612
1877.92	8.78687
1878.07	12.1149
1878.22	6.55847
1878.37	4.89145
1878.52	3.47888
1878.67	6.75977
1878.82	4.87695
1878.97	8.28238
1879.11	8.07718
1879.26	4.83002
1879.41	-1.34409
1879.56	5.58841
1879.71	3.88138
1879.86	5.25479
1880	19.3676
1880.15	7.16403
1880.3	3.94745
1880.45	3.75769
1880.6	3.22369
1880.75	4.14996
1880.9	3.7793
1881.04	3.82025
1881.19	5.48212
1881.34	3.68683
1881.49	2.75458
1881.64	7.20316
1881.79	3.04803
1881.93	4.0177
1882.08	3.73499
1882.23	2.90814
1882.38	4.20599
1882.53	5.39725
1882.68	8.85779
1882.82	6.87744
1882.97	5.55643
1883.12	6.15262
1883.27	2.32358
1883.42	4.39642
1883.57	4.2681
1883.71	10.3353
1883.86	7.44287
1884.01	6.51657
1884.16	8.25677
1884.31	6.10919
1884.46	7.33368
1884.61	1.15207
1884.75	7.76016
1884.9	8.10327
1885.05	6.66922
1885.2	4.47308
1885.35	11.364
1885.49	4.45972
1885.64	2.9184
1885.79	5.7739
1885.94	3.27264
1886.09	9.31845
1886.24	8.0748
1886.38	1.54352
1886.53	0.441132
1886.68	1.83044
1886.83	5.59348
1886.98	0.752472
1887.12	6.14365
1887.27	10.423
1887.42	10.5891
1887.57	9.67899
1887.72	9.14496
1887.87	4.43683
1888.01	10.4765
1888.16	5.06284
1888.31	1.10553
1888.46	4.8718
1888.61	9.83142
1888.75	3.72861
1888.9	3.52621
1889.05	5.19452
1889.2	4.99902
1889.35	5.95032
1889.5	9.2066
1889.64	6.90341
1889.79	8.2027
1889.94	5.53271
1890.09	7.60922
1890.23	2.65308
1890.38	4.07166
1890.53	4.56015
1890.68	7.32715
1890.83	4.33136
1890.98	1.53284
1891.12	4.94016
1891.27	4.81232
1891.42	2.09653
1891.57	4.72836
1891.72	8.72244
1891.86	2.50949
1892.01	3.99612
1892.16	4.98962
1892.31	7.45798
1892.46	7.46637
1892.6	6.9473
1892.75	2.052
1892.9	0.876862
1893.05	10.843
1893.2	0.941742
1893.34	4.04065
1893.49	2.58371
1893.64	-0.617737
1893.79	5.71039
1893.93	6.89511
1894.08	0.946442
1894.23	4.88214
1894.38	7.46692
1894.53	2.22104
1894.67	6.40091
1894.82	1.76868
1894.97	7.08829
1895.12	4.97333
1895.27	0.40567
1895.41	10.3134
1895.56	9.90634
1895.71	0.966156
1895.86	3.89148
1896.01	6.17224
1896.15	3.22308
1896.3	9.5744
1896.45	3.06396
1896.6	3.67822
1896.74	2.53293
1896.89	4.2879
1897.04	4.58057
1897.19	6.01941
1897.33	6.07996
1897.48	7.62552
1897.63	6.50473
1897.78	4.33075
1897.93	6.45868
1898.07	5.08282
1898.22	6.58725
1898.37	6.59705
1898.52	5.39798
1898.66	2.82474
1898.81	4.84006
1898.96	4.50775
1899.11	2.17987
1899.25	6.3512
1899.4	8.04724
1899.55	4.59601
1899.7	4.46909
1899.85	4.5939
1899.99	3.54718
1900.14	7.57574
1900.29	3.29007
1900.44	5.52826
1900.58	6.61981
1900.73	-0.0829468
1900.88	3.95993
1901.03	3.5788
1901.17	3.85425
1901.32	10.7112
1901.47	3.53784
1901.62	3.69901
1901.76	6.44598
1901.91	5.97079
1902.06	2.99942
1902.21	7.59479
1902.35	2.1723
1902.5	2.57828
1902.65	6.5773
1902.8	2.33746
1902.94	5.53
1903.09	3.67361
1903.24	2.34259
1903.39	7.72522
1903.54	6.12207
1903.68	5.00372
1903.83	0.95108
1903.98	5.35428
1904.12	3.65991
1904.27	4.62088
1904.42	7.18826
1904.57	4.72821
1904.71	3.90634
1904.86	2.48386
1905.01	3.35181
1905.16	8.3689
1905.3	2.22626
1905.45	2.03464
1905.6	1.18301
1905.75	5.19424
1905.89	2.33093
1906.04	9.1106
1906.19	-0.314697
1906.34	4.21918
1906.48	4.11438
1906.63	2.64282
1906.78	1.61581
1906.92	8.75256
1907.07	5.58276
1907.22	3.2442
1907.37	5.2627
1907.51	3.95303
1907.66	7.45047
1907.81	8.05286
1907.96	8.04123
1908.1	9.9346
1908.25	2.2442
1908.4	4.89194
1908.54	2.2261
1908.69	1.28339
1908.84	7.45639
1908.99	5.36859
1909.13	6.93985
1909.28	6.16129
1909.43	3.25745
1909.58	4.12277
1909.72	5.32614
1909.87	3.28366
1910.02	5.15985
1910.17	5.60873
1910.31	8.07806
1910.46	3.88333
1910.61	4.88193
1910.75	2.09152
1910.9	0.922272
1911.05	4.58203
1911.19	6.26495
1911.34	6.71542
1911.49	5.28052
1911.64	5.33762
1911.78	5.98077
1911.93	5.59137
1912.08	5.98773
1912.23	10.3949
1912.37	8.48965
1912.52	7.14676
1912.67	2.38187
1912.81	3.00604
1912.96	9.34167
1913.11	6.58514
1913.25	11.0192
1913.4	23.7365
1913.55	3.34024
1913.7	4.32013
1913.84	7.28061
1913.99	7.22382
1914.14	3.31369
1914.28	4.61072
1914.43	1.47504
1914.58	3.5817
1914.73	6.72589
1914.87	2.82266
1915.02	3.0838
1915.17	4.54706
1915.31	5.07062
1915.46	5.81696
1915.61	4.77945
1915.75	4.3382
1915.9	3.03714
1916.05	9.23502
1916.19	7.8439
1916.34	6.5231
1916.49	9.5387
1916.64	9.14343
1916.78	9.22015
1916.93	2.89154
1917.08	3.66757
1917.22	7.19635
1917.37	3.39819
1917.52	2.95343
1917.66	3.9075
1917.81	4.39679
1917.96	2.15967
1918.1	7.57596
1918.25	6.01425
1918.4	10.5329
1918.54	4.51816
1918.69	7.91486
1918.84	4.6232
1918.99	3.16318
1919.13	6.10941
1919.28	5.39511
1919.43	5.42474
1919.57	5.81281
1919.72	3.61035
1919.87	4.72092
1920.01	8.62576
1920.16	1.05499
1920.31	4.13187
1920.45	3.1188
1920.6	6.14609
1920.75	5.72818
1920.89	6.28909
1921.04	6.38699
1921.19	4.63013
1921.33	6.46448
1921.48	2.61731
1921.63	1.37634
1921.77	6.3172
1921.92	3.85294
1922.07	7.37222
1922.21	6.49451
1922.36	5.86591
1922.51	9.1355
1922.65	4.14703
1922.8	3.38977
1922.95	8.58633
1923.09	5.34396
1923.24	4.9368
1923.39	5.09698
1923.53	6.02277
1923.68	4.70917
1923.83	3.87415
1923.97	5.53012
1924.12	4.09537
1924.27	5.45944
1924.41	6.42792
1924.56	6.13327
1924.71	4.42624
1924.85	5.19757
1925	2.6319
1925.15	4.85483
1925.29	4.62427
1925.44	4.67862
1925.59	8.51303
1925.73	5.10001
1925.88	3.87982
1926.03	5.37759
1926.17	2.9584
1926.32	9.58194
1926.46	6.49734
1926.61	5.68939
1926.76	4.13272
1926.9	4.11243
1927.05	2.46176
1927.2	5.35217
1927.34	6.35797
1927.49	5.89151
1927.64	6.1731
1927.78	8.35632
1927.93	8.29303
1928.08	4.4212
1928.22	7.87454
1928.37	4.9285
1928.52	2.29092
1928.66	3.74646
1928.81	8.86581
1928.95	7.35376
1929.1	5.45035
1929.25	8.03516
1929.39	6.71094
1929.54	6.29279
1929.69	7.84286
1929.83	4.87198
1929.98	6.4758
1930.05	9.8259
1930.19	8.42307
1930.34	4.58179
1930.49	7.2612
1930.64	8.60028
1930.79	8.61386
1930.94	8.60419
1931.09	7.04822
1931.24	5.73831
1931.39	5.96826
1931.53	3.75546
1931.68	6.8291
1931.83	8.09341
1931.98	6.32761
1932.13	6.8443
1932.28	10.7826
1932.43	6.90472
1932.57	6.73117
1932.72	3.86627
1932.87	4.30377
1933.02	3.32635
1933.17	7.16183
1933.32	8.61835
1933.47	9.31992
1933.62	6.84515
1933.76	8.6319
1933.91	4.7854
1934.06	3.81937
1934.21	0.73114
1934.36	3.36725
1934.51	9.47238
1934.66	7.03384
1934.81	6.58829
1934.95	5.21857
1935.1	10.1967
1935.25	14.1457
1935.4	9.35068
1935.55	7.89471
1935.7	5.4668
1935.85	5.81976
1935.99	12.0952
1936.14	4.33176
1936.29	10.495
1936.44	9.18082
1936.59	9.50562
1936.74	5.62375
1936.89	4.59045
1937.03	7.27682
1937.18	6.9111
1937.33	4.06284
1937.48	6.19556
1937.63	6.7659
1937.78	3.94217
1937.93	4.06512
1938.08	8.60992
1938.22	3.89822
1938.37	3.22855
1938.52	4.13269
1938.67	16.6796
1938.82	8.00653
1938.97	3.76578
1939.12	6.84448
1939.26	10.9739
1939.41	9.0061
1939.56	10.5819
1939.71	5.10776
1939.86	7.18323
1940.01	5.37851
1940.15	5.91519
1940.3	7.9032
1940.45	10.406
1940.6	9.39481
1940.75	4.92654
1940.9	5.77426
1941.04	4.49551
1941.19	8.31711
1941.34	4.06619
1941.49	9.68512
1941.64	11.2786
1941.79	10.9961
1941.93	9.30188
1942.08	8.92526
1942.23	7.33456
1942.38	9.94196
1942.53	6.51743
1942.68	6.96542
1942.82	7.25253
1942.97	8.73859
1943.12	6.18597
1943.27	7.11981
1943.42	7.59518
1943.57	4.14206
1943.71	2.55457
1943.86	5.24042
1944.01	9.8436
1944.16	5.80524
1944.31	6.63583
1944.46	5.14651
1944.6	8.03635
1944.75	8.78
1944.9	5.9696
1945.05	6.36197
1945.2	5.13052
1945.35	5.47852
1945.49	11.5524
1945.64	8.38635
1945.79	8.73111
1945.94	7.70953
1946.09	12.8773
1946.23	8.58347
1946.38	3.44537
1946.53	7.44946
1946.68	9.138
1946.83	4.59158
1946.98	6.15213
1947.12	1.75327
1947.27	4.82205
1947.42	7.63351
1947.57	9.95831
1947.72	3.13495
1947.86	2.78036
1948.01	8.70688
1948.16	8.04446
1948.31	5.09402
1948.46	6.33301
1948.61	10.153
1948.75	8.63638
1948.9	8.9212
1949.05	6.35458
1949.2	7.85837
1949.35	5.79742
1949.49	6.33438
1949.64	8.89484
1949.79	5.94241
1949.94	2.78076
1950.09	6.3725
1950.23	6.20654
1950.38	5.8927
1950.53	3.73141
1950.68	5.54388
1950.83	6.96997
1950.97	9.6539
1951.12	7.04831
1951.27	1.64398
1951.42	3.3634
1951.57	3.76996
1951.71	6.46729
1951.86	4.70535
1952.01	5.80771
1952.16	4.17566
1952.31	6.69211
1952.45	6.48068
1952.6	5.71552
1952.75	8.48544
1952.9	10.5645
1953.05	7.55542
1953.19	4.03253
1953.34	7.73721
1953.49	8.63391
1953.64	1.99893
1953.79	7.7001
1953.93	2.29114
1954.08	7.35159
1954.23	3.49713
1954.38	8.18692
1954.52	6.78766
1954.67	7.72906
1954.82	7.05301
1954.97	7.68369
1955.12	10.9299
1955.26	9.14352
1955.41	11.6845
1955.56	2.98093
1955.71	7.81345
1955.85	3.58594
1956	11.0225
1956.15	4.58676
1956.3	6.51105
1956.45	12.0018
1956.59	7.22797
1956.74	9.25192
1956.89	8.05103
1957.04	11.8249
1957.18	4.96185
1957.33	4.41367
1957.48	5.90854
1957.63	5.63495
1957.78	5.96387
1957.92	10.586
1958.07	5.52414
1958.22	10.1185
1958.37	6.98773
1958.51	7.27722
1958.66	5.54529
1958.81	7.9635
1958.96	3.55096
1959.1	7.69437
1959.25	10.8116
1959.4	4.18054
1959.55	4.09833
1959.7	4.89267
1959.84	7.44922
1959.99	3.96371
1960.14	7.57388
1960.29	5.26944
1960.43	6.57965
1960.58	5.89175
1960.73	2.60394
1960.88	4.3761
1961.02	6.33865
1961.17	3.59308
1961.32	5.85934
1961.47	1.02277
1961.61	3.53586
1961.76	5.51846
1961.91	8.75461
1962.06	11.5624
1962.2	8.84155
1962.35	5.98343
1962.5	6.6824
1962.65	9.17822
1962.79	2.38559
1962.94	5.49527
1963.09	4.45657
1963.24	8.20728
1963.38	9.96658
1963.53	5.94437
1963.68	6.03088
1963.83	24.1466
1963.97	7.76166
1964.12	7.76163
1964.27	8.85934
1964.42	4.13629
1964.56	5.27927
1964.71	7.41251
1964.86	8.41318
1965.01	10.9641
1965.15	4.49368
1965.3	2.13913
1965.45	5.91617
1965.6	7.07159
1965.74	3.61514
1965.89	5.20306
1966.04	7.7735
1966.19	7.62292
1966.33	8.50864
1966.48	3.47815
1966.63	4.70374
1966.77	8.84888
1966.92	5.42001
1967.07	9.45572
1967.22	2.56067
1967.36	12.4252
1967.51	6.78619
1967.66	8.89536
1967.81	7.57098
1967.95	8.23941
1968.1	8.82706
1968.25	6.75299
1968.39	6.41608
1968.54	11.5794
1968.69	10.117
1968.84	6.95102
1968.98	5.06342
1969.13	3.36697
1969.28	8.51318
1969.43	4.51749
1969.57	7.31589
1969.72	3.42142
1969.87	5.03763
1970.01	8.92038
1970.16	7.8046
1970.31	9.9635
1970.46	9.28323
1970.6	5.401
1970.75	5.48743
1970.9	4.64893
1971.04	9.259
1971.19	5.55795
1971.34	4.3009
1971.49	4.0448
1971.63	6.92398
1971.78	7.37692
1971.93	5.35977
1972.07	7.59756
1972.22	6.92401
1972.37	4.95502
1972.52	5.18448
1972.66	3.60104
1972.81	12.6051
1972.96	5.0484
1973.1	11.7768
1973.25	5.716
1973.4	1.86285
1973.55	6.76392
1973.69	2.48438
1973.84	4.62631
1973.99	5.93384
1974.13	4.21036
1974.28	6.1264
1974.43	4.81854
1974.57	7.25299
1974.72	6.73849
1974.87	2.24088
1975.02	8.20477
1975.16	10.9016
1975.31	3.26358
1975.46	2.95935
1975.6	9.0592
1975.75	11.5932
1975.9	6.75677
1976.04	6.3215
1976.19	3.96365
1976.34	4.77603
1976.49	8.71561
1976.63	10.0517
1976.78	2.45673
1976.93	7.70105
1977.07	6.20032
1977.22	4.88278
1977.37	4.37125
1977.51	6.12109
1977.66	-0.126251
1977.81	9.78235
1977.95	7.5134
1978.1	4.73999
1978.25	4.93933
1978.39	5.69684
1978.54	3.73337
1978.69	2.54965
1978.84	2.66345
1978.98	3.68546
1979.13	2.8877
1979.28	5.32172
1979.42	0.568268
1979.57	3.92886
1979.72	4.52859
1979.86	5.38223
1980.01	3.3205
1980.16	5.83163
1980.3	5.08316
1980.45	7.66763
1980.6	7.65601
1980.74	10.5181
1980.89	13.5965
1981.04	7.67981
1981.18	3.21542
1981.33	4.29901
1981.48	3.11337
1981.62	2.276
1981.77	-0.564087
1981.92	-0.0884399
1982.06	9.95828
1982.21	4.47339
1982.36	4.4584
1982.5	4.41165
1982.65	2.58936
1982.8	1.59485
1982.94	3.33765
1983.09	4.35974
1983.24	3.34378
1983.38	6.38354
1983.53	2.0119
1983.68	3.25259
1983.82	9.42703
1983.97	4.87247
1984.12	3.29993
1984.26	3.88083
1984.41	5.12814
1984.56	0.21936
1984.7	5.08972
1984.85	3.88184
1985	2.68701
1985.14	2.38049
1985.29	4.41898
1985.44	3.00388
1985.58	3.56293
1985.73	3.76572
1985.88	4.83694
1986.02	4.69464
1986.17	4.6167
1986.32	3.09882
1986.46	1.95163
1986.61	-1.4137
1986.75	6.61383
1986.9	0.729034
1987.05	4.30032
1987.2	1.6163
1987.34	3.72031
1987.49	8.37302
1987.63	-1.07526
1987.78	7.98242
1987.93	-0.0112915
1988.07	2.61017
1988.22	6.76086
1988.37	2.52246
1988.51	0.57077
1988.66	10.1765
1988.81	6.84723
1988.95	6.2728
1989.1	4.06519
1989.24	3.02612
1989.39	8.78009
1989.54	4.35886
1989.68	1.06299
1989.83	1.78693
1989.98	4.84573
1990.12	2.10983
1990.27	1.08871
1990.42	4.14154
1990.56	0.300537
1990.71	4.24347
1990.85	5.78555
1991	0.473694
1991.15	3.69879
1991.29	5.358
1991.44	7.63464
1991.59	3.38544
1991.73	7.96777
1991.88	7.14789
1992.02	0.501038
1992.17	5.91931
1992.32	5.73465
1992.46	2.67865
1992.61	2.7077
1992.76	2.49207
1992.9	4.87933
1993.05	5.55652
1993.19	1.17752
1993.34	4.70557
1993.49	2.66174
1993.63	7.49051
1993.78	6.1358
1993.93	2.20386
1994.07	3.02768
1994.22	5.79153
1994.36	0.558014
1994.51	1.61108
1994.66	0.798492
1994.8	2.95786
1994.95	0.543823
1995.1	5.57367
1995.24	1.35318
1995.39	1.95651
1995.53	5.00433
1995.68	3.9129
1995.83	7.82352
1995.97	4.48291
1996.12	4.22748
1996.27	1.26895
1996.41	3.56659
1996.56	8.61728
1996.7	5.95798
1996.85	0.886902
1996.99	5.21017
1997.14	3.47565
1997.29	1.33987
1997.43	5.88409
1997.58	4.46365
1997.73	0.657562
1997.87	2.04547
1998.02	3.45276
1998.16	-0.627075
1998.31	2.71051
1998.46	7.24487
1998.6	-2.59186
1998.75	4.90393
1998.89	-0.451965
1999.04	-0.809845
1999.18	2.20303
1999.33	1.23819
1999.48	3.89429
1999.62	0.950226
1999.77	2.11166
1999.92	1.88574
2000.06	1.21121
2000.21	9.20892
2000.35	3.0672
2000.5	0.835968
2000.64	2.76666
2000.79	-1.76703
2000.94	1.65118
2001.08	0.240326
2001.23	7.59912
2001.37	3.80746
2001.52	6.64838
2001.67	-0.496094
2001.81	8.75232
2001.96	2.34564
2002.1	2.75436
2002.25	0.848663
2002.4	-0.742798
2002.54	1.34171
2002.69	0.0309753
2002.83	0.320374
2002.98	-1.01544
2003.12	4.09119
2003.27	-0.383728
2003.42	0.0260315
2003.56	0.248291
2003.71	7.40408
2003.85	6.5657
2004	1.54553
2004.14	1.05548
2004.29	3.85205
2004.44	2.1965
2004.58	6.50574
2004.73	-1.48645
2004.87	3.57919
2005.02	2.29233
2005.16	2.11111
2005.31	3.25385
2005.46	-1.6214
2005.6	-0.210236
2005.75	5.89676
2005.89	0.30069
2006.04	4.42227
2006.19	2.21097
2006.33	0.318726
2006.48	3.82718
2006.62	5.5235
2006.77	-1.48212
2006.91	4.87448
2007.06	0.535828
2007.21	-2.18304
2007.35	-0.389648
2007.5	0.212189
2007.64	1.59027
2007.79	-1.24277
2007.93	0.693512
2008.08	0.698029
2008.22	-0.717255
2008.37	2.51288
2008.52	0.697052
2008.66	-0.0740356
2008.81	4.24442
2008.95	-2.10318
2009.1	3.75461
2009.24	3.60449
2009.39	1.93042
2009.53	1.27521
2009.68	6.366
2009.83	-2.88861
2009.97	-0.531433
2010.12	3.68924
2010.26	-2.70889
2010.41	-0.744843
2010.55	-1.05103
2010.7	1.50085
2010.84	-0.325043
2010.99	1.73392
2011.13	-3.56393
2011.28	0.870392
2011.43	3.54874
2011.57	0.861298
2011.72	4.9776
2011.86	-1.09686
2012.01	1.18939
2012.15	-1.49185
2012.3	-0.942474
2012.44	0.0385132
2012.59	1.58578
2012.73	1.41376
2012.88	-1.31934
2013.03	-1.52597
2013.17	-2.67642
2013.32	-0.637817
2013.46	-1.9509
2013.61	1.23871
2013.75	0.488159
2013.9	4.07813
2014.04	1.47302
2014.19	2.10928
2014.33	-0.372375
2014.48	-0.916565
2014.62	0.0179138
2014.77	-1.26108
2014.91	4.0574
2015.06	3.65558
2015.21	3.16061
2015.35	3.16116
2015.5	0.874725
2015.64	-0.221893
2015.79	1.47037
2015.93	3.67001
2016.08	3.72116
2016.22	1.55692
2016.37	6.06152
2016.51	-1.69034
2016.66	4.41159
2016.8	0.662994
2016.95	-0.246887
2017.09	-1.54373
2017.24	1.77487
2017.38	3.80518
2017.53	3.47293
2017.67	-1.32083
2017.82	-0.973389
2017.96	0.0922852
2018.11	-1.61588
2018.26	-0.196381
2018.4	-2.1022
2018.55	9.20599
2018.69	-1.28073
2018.84	-1.62112
2018.98	0.756561
2019.13	-0.544434
2019.27	-4.28668
2019.42	0.801453
2019.56	-3.89197
2019.71	-5.10727
2019.85	-0.361145
2020	1.31467
2020.14	2.73538
2020.29	-2.67624
2020.43	0.464203
2020.58	-1.22977
2020.72	-1.8808
2020.87	5.43729
2021.01	2.31299
2021.16	-0.673065
2021.3	4.4888
2021.45	-1.11694
2021.59	1.86264
2021.74	-0.279938
2021.88	7.65897
2022.03	2.25137
2022.17	0.804993
2022.32	-2.55325
2022.46	-2.34805
2022.61	-2.69827
2022.75	0.304749
2022.9	0.71347
2023.04	-0.674011
2023.19	-2.74985
2023.33	1.57697
2023.48	3.00278
2023.62	-3.34995
2023.77	-1.87653
2023.91	0.533966
2024.06	2.13184
2024.2	-3.21704
2024.35	-0.980194
2024.49	1.83405
2024.64	2.13412
2024.78	-4.45529
2024.93	1.47614
2025.07	-0.225494
2025.22	3.80746
2025.36	-2.28308
2025.51	-2.95212
2025.65	1.99097
2025.8	4.79977
2025.94	1.91302
2026.09	-1.23938
2026.23	-0.124664
2026.38	-0.852631
2026.52	-0.933685
2026.67	1.63281
2026.81	3.59927
2026.95	-1.24976
2027.1	0.630798
2027.24	-1.1507
2027.39	3.98788
2027.53	-4.27466
2027.68	-4.24182
2027.82	0.190918
2027.97	1.62317
2028.11	0.906464
2028.26	0.575287
2028.4	2.70004
2028.55	-2.14316
2028.69	-1.15726
2028.84	1.92972
2028.98	4.07376
2029.13	-0.335327
2029.27	-1.31821
2029.42	1.13107
2029.56	-3.72678
2029.71	0.197327
2029.85	0.513092
2029.99	-0.337402
2030.14	-1.08929
2030.28	0.694305
2030.43	-2.16449
2030.57	-3.91028
2030.72	-1.89297
2030.86	4.06091
2031.01	1.31372
2031.15	0.0881958
2031.3	-2.60767
2031.44	-1.40073
2031.59	-0.0168762
2031.73	0.73822
2031.87	5.07507
2032.02	5.68222
2032.16	-2.24307
2032.31	-1.11996
2032.45	2.17178
2032.6	3.55551
2032.74	-1.13763
2032.89	0.401001
2033.03	-0.355347
2033.18	3.46704
2033.32	1.55051
2033.47	0.0618286
2033.61	-0.426788
2033.75	1.07233
2033.9	-3.06912
2034.04	-1.02206
2034.19	0.0578613
2034.33	1.86682
2034.48	0.856689
2034.62	-0.566193
2034.77	-1.27838
2034.91	-2.7442
2035.05	3.77902
2035.2	5.06815
2035.34	2.72095
2035.49	-1.96326
2035.63	1.95459
2035.78	0.323456
2035.92	-4.8688
2036.07	-2.13498
2036.21	1.34219
2036.35	-0.487366
2036.5	-4.24478
2036.64	-0.42691
2036.79	-1.33353
2036.93	0.511108
2037.08	3.42844
2037.22	1.82288
2037.37	0.316437
2037.51	-0.777313
2037.65	3.4675
2037.8	2.10098
2037.94	-0.690063
2038.09	-1.95239
2038.23	-1.68759
2038.37	-0.314636
2038.52	-2.62582
2038.66	4.05283
2038.81	-0.996338
2038.95	-1.25027
2039.1	3.48962
2039.24	-0.20932
2039.39	3.89716
2039.53	2.80026
2039.67	2.64932
2039.82	2.272
2039.96	-0.99762
2040.11	1.11493
2040.25	-1.28864
2040.39	-0.12439
2040.54	4.73471
2040.68	2.513
2040.83	-2.23642
2040.97	-0.905701
2041.12	-0.906036
2041.26	6.31561
2041.41	-0.386414
2041.55	20.2974
2041.69	0.558716
2041.84	0.195313
2041.98	3.18338
2042.13	-1.98428
2042.27	2.81592
2042.41	0.832825
2042.56	-2.01788
2042.7	1.01123
2042.85	2.47946
2042.99	1.09833
2043.13	-2.58786
2043.28	0.266571
2043.42	-1.89258
2043.57	-4.29974
2043.71	-0.511261
2043.86	4.32715
2044	1.81567
2044.14	-3.39322
2044.29	6.72232
2044.43	-3.15466
2044.58	-2.66223
2044.72	-5.22559
2044.86	-2.74393
2045.01	7.44223
2045.15	-1.10022
2045.3	-1.47198
2045.44	-1.37567
2045.58	-2.46341
2045.73	1.82684
2045.87	-1.09647
2046.02	-0.335938
2046.16	0.51709
2046.3	1.36853
2046.45	3.61636
2046.59	4.19733
2046.74	2.6705
2046.88	0.722809
2047.02	1.0737
2047.17	2.11984
2047.31	-1.12613
2047.46	-0.538544
2047.6	1.62067
2047.74	2.83868
2047.89	-0.0776367
2048.03	-3.50787
2048.17	4.08258
2048.32	-0.865509
2048.46	-0.538483
2048.61	0.568787
2048.75	0.10434
2048.89	-2.82898
2049.04	-0.197418
2049.18	-3.4007
2049.33	-2.1994
2049.47	0.54953
2049.61	4.51874
2049.76	0.503174
2049.9	-3.3671
2050.05	0.384613
2050.19	1.5795
2050.33	-0.986908
2050.48	-0.780731
2050.62	0.525818
2050.76	-2.10129
2050.91	3.5188
2051.05	1.01419
2051.2	-4.0321
2051.34	1.46033
2051.48	-3.47311
2051.63	0.0816956
2051.77	3.39114
2051.92	0.878143
2052.06	2.98926
2052.2	0.701141
2052.35	4.36783
2052.49	9.43195
2052.63	-2.9787
2052.78	0.345856
2052.92	-1.82498
2053.06	2.94528
2053.21	-0.343597
2053.35	3.01816
2053.49	1.4787
2053.64	-0.892548
2053.78	0.887939
2053.93	1.98636
2054.07	-3.68387
2054.21	0.794037
2054.36	0.690155
2054.5	-2.13187
2054.64	-2.40552
2054.79	-0.112427
2054.93	-2.73193
2055.08	0.937714
2055.22	-2.70987
2055.36	2.63809
2055.51	1.87726
2055.65	4.26505
2055.79	2.35999
2055.94	1.30759
2056.08	-2.07932
2056.22	-0.346497
2056.37	1.1879
2056.51	3.77927
2056.65	-2.9718
2056.8	1.57138
2056.94	0.00762939
2057.08	-4.54736
2057.23	2.94128
2057.37	5.03259
2057.52	-3.20041
2057.66	1.10547
2057.8	6.41901
2057.95	1.73856
2058.09	1.35553
2058.23	7.33777
2058.38	0.976166
2058.52	-0.802765
2058.66	0.386353
2058.81	-0.65564
2058.95	-0.676239
2059.09	0.438965
2059.24	3.92871
2059.38	1.22736
2059.52	1.54919
2059.67	0.167419
2059.81	1.68277
2059.96	2.06866
2060.1	-3.21185
2060.24	3.18295
2060.39	3.54196
2060.53	0.870239
2060.67	-4.30722
2060.81	5.13696
2060.96	2.6297
2061.1	3.1181
2061.24	-0.811981
2061.39	2.8526
2061.53	3.65561
2061.67	3.83786
2061.82	7.29422
2061.96	8.92255
2062.1	-0.0948181
2062.25	-1.10135
2062.39	1.27441
2062.54	7.25659
2062.68	-1.88724
2062.82	0.117706
2062.97	3.00684
2063.11	1.37653
2063.25	-2.07831
2063.4	-0.398254
2063.54	2.17587
2063.68	1.95905
2063.83	3.45511
2063.97	0.733643
2064.11	-0.30545
2064.25	6.93341
2064.4	0.560791
2064.54	1.134
2064.68	-0.0367737
2064.83	-3.65594
2064.97	4.18292
2065.11	-2.67462
2065.26	2.01959
2065.4	1.99847
2065.54	5.30807
2065.69	2.28729
2065.83	3.62247
2065.97	-2.00986
2066.12	2.70099
2066.26	-0.636566
2066.4	0.0336609
2066.54	-2.84113
2066.69	0.653809
2066.83	-1.82712
2066.97	1.32739
2067.12	2.52618
2067.26	3.23453
2067.4	16.742
2067.55	-1.07672
2067.69	-2.12674
2067.83	0.151489
2067.98	-1.63821
2068.12	-0.0375061
2068.26	0.529999
2068.41	2.58588
2068.55	4.35376
2068.69	4.09976
2068.83	-0.537903
2068.98	0.461884
2069.12	2.83707
2069.26	2.83841
2069.41	9.64886
2069.55	-1.54688
2069.69	2.20059
2069.84	1.94778
2069.98	2.57697
2070.12	1.9538
2070.26	1.08951
2070.41	4.60721
2070.55	2.30786
2070.69	-0.479767
2070.84	5.15735
2070.98	3.55472
2071.12	1.29288
2071.27	-4.68497
2071.41	7.8353
2071.55	3.21655
2071.69	5.79257
2071.84	1.45743
2071.98	-0.426239
2072.12	0.0462036
2072.27	6.42871
2072.41	3.4906
2072.55	1.46014
2072.69	-0.00598145
2072.84	0.804565
2072.98	1.25229
2073.12	-1.98346
2073.27	6.06732
2073.41	-2.20078
2073.55	-0.902863
2073.69	-0.75238
2073.84	2.763
2073.98	5.58145
2074.12	-1.07498
2074.27	2.83731
2074.41	0.0972595
2074.55	5.34769
2074.69	-3.40698
2074.84	-1.73273
2074.98	5.08063
2075.12	7.12711
2075.26	-0.472687
2075.41	-0.847137
2075.55	1.01437
2075.69	0.227722
2075.84	2.03302
2075.98	-1.57224
2076.12	8.97693
2076.26	4.27243
2076.41	4.53763
2076.55	1.90134
2076.69	3.54807
2076.83	3.79321
2076.98	-0.212097
2077.12	-0.567017
2077.26	-5.69131
2077.41	3.8573
2077.55	-1.55359
2077.69	0.181274
2077.83	-2.39621
2077.98	-0.284882
2078.12	6.05557
2078.26	3.79883
2078.4	8.32144
2078.55	2.8913
2078.69	2.62964
2078.83	8.4628
2078.97	4.51215
2079.12	1.23892
2079.26	1.3999
2079.4	1.63049
2079.54	-1.22336
2079.69	-0.73703
2079.83	6.19849
2079.97	3.25034
2080.11	3.46307
2080.26	-1.30151
2080.4	2.1189
2080.54	2.55103
2080.68	5.05902
2080.83	4.44751
2080.97	9.06219
2081.11	-2.85992
2081.25	1.01962
2081.4	-1.16913
2081.54	1.86502
2081.68	2.86581
2081.82	1.9588
2081.97	-0.368652
2082.11	7.09351
2082.25	-2.33505
2082.4	0.0168457
2082.54	4.10834
2082.68	4.43518
2082.82	-1.28671
2082.96	5.75104
2083.11	-0.654816
2083.25	4.9234
2083.39	3.31189
2083.53	2.31592
2083.68	1.42032
2083.82	0.217468
2083.96	1.6243
2084.1	2.94565
2084.25	0.598602
2084.39	3.05939
2084.53	-2.3172
2084.67	-0.324371
2084.82	1.23071
2084.96	3.03375
2085.1	1.50751
2085.24	4.25778
2085.39	2.29248
2085.53	-3.56619
2085.67	2.96844
2085.81	-0.714417
2085.95	9.49518
2086.1	4.56943
2086.24	3.43649
2086.38	2.49783
2086.52	0.773834
2086.67	4.8671
2086.81	-1.85162
2086.95	4.15793
2087.09	3.35696
2087.23	7.4939
2087.38	2.44418
2087.52	8.15942
2087.66	5.55795
2087.8	-2.17126
2087.95	5.66949
2088.09	2.49973
2088.23	1.16132
2088.37	3.74365
2088.51	3.4523
2088.66	1.8577
2088.8	-3.36423
2088.94	1.97162
2089.08	2.42099
2089.23	0.225708
2089.37	1.4101
2089.51	5.95645
2089.65	-0.56073
2089.79	3.76669
2089.94	-0.248657
2090.08	0.0787964
2090.22	-0.480652
2090.36	8.17102
2090.5	0.58493
2090.65	4.02151
2090.79	4.81345
2090.93	1.54495
2091.07	0.0461121
2091.22	-0.877441
2091.36	3.36435
2091.5	-4.41989
2091.64	3.16583
2091.78	2.99091
2091.93	-0.0543518
2092.07	2.79825
2092.21	6.77753
2092.35	3.04434
2092.49	4.72095
2092.64	2.6319
2092.78	1.44226
2092.92	0.994293
2093.06	2.1824
2093.2	0.61496
2093.34	-0.330444
2093.49	6.68469
2093.63	7.62344
2093.77	5.56699
2093.91	3.8378
2094.05	2.39383
2094.2	1.35117
2094.34	4.42368
2094.48	2.03482
2094.62	-1.28214
2094.76	1.53076
2094.91	3.36069
2095.05	2.13342
2095.19	2.63889
2095.33	0.736389
2095.47	5.75311
2095.62	2.98337
2095.76	1.83997
2095.9	3.76282
2096.04	6.73309
2096.18	5.71655
2096.33	3.02902
2096.47	3.60834
2096.61	-0.206848
2096.75	4.15677
2096.89	0.0894775
2097.03	-1.24887
2097.18	2.61966
2097.32	2.15726
2097.46	4.57751
2097.6	17.4049
2097.74	1.15787
2097.89	1.30594
2098.03	0.250153
2098.17	0.580231
2098.31	3.63873
2098.45	2.83521
2098.59	2.19601
2098.74	7.19168
2098.88	5.00342
2099.02	6.06964
2099.16	4.67841
2099.3	2.935
2099.45	3.40134
2099.59	1.89426
2099.73	1.48944
2099.87	1.49661
2100.01	3.55743
2100.15	5.43518
2100.3	2.76886
2100.44	8.47211
2100.58	2.47339
2100.72	1.41003
2100.86	0.609131
2101	4.81146
2101.15	1.54608
2101.29	1.75647
2101.43	1.60602
2101.57	1.32556
2101.71	12.6882
2101.85	3.29843
2102	3.32324
2102.14	5.47153
2102.28	7.93466
2102.42	5.36841
2102.56	2.75378
2102.7	8.08383
2102.84	8.32855
2102.99	2.90381
2103.13	0.888214
2103.27	4.88889
2103.41	0.312408
2103.55	2.87769
2103.69	4.14468
2103.84	9.72168
2103.98	4.54306
2104.12	4.22482
2104.26	0.100739
2104.4	3.69009
2104.54	-0.23877
2104.69	1.25919
2104.83	5.94727
2104.97	-0.870209
2105.11	1.65308
2105.25	3.02689
2105.39	7.1842
2105.53	2.33829
2105.67	3.17404
2105.82	4.13574
2105.96	1.26517
2106.1	-0.524933
2106.24	4.53964
2106.38	-0.782501
2106.52	3.26123
2106.67	4.26071
2106.81	0.915314
2106.95	0.550049
2107.09	0.796783
2107.23	6.74335
2107.37	1.97888
2107.51	1.61646
2107.66	4.05386
2107.8	4.58127
2107.94	2.74054
2108.08	5.01938
2108.22	0.617157
2108.36	4.94189
2108.5	2.21625
2108.64	3.85748
2108.79	4.61368
2108.93	6.51532
2109.07	6.69247
2109.21	3.36856
2109.35	3.90967
2109.49	8.56866
2109.63	3.01913
2109.78	0.186523
2109.92	4.38327
2110.06	5.12714
2110.2	3.98245
2110.34	3.89969
2110.48	7.40915
2110.62	-2.26031
2110.76	2.88928
2110.9	6.46246
2111.05	3.08951
2111.19	1.54065
2111.33	8.45871
2111.47	0.797607
2111.61	5.90085
2111.75	2.715
2111.89	3.81577
2112.03	2.72519
2112.18	4.09155
2112.32	4.19971
2112.46	6.51917
2112.6	4.46027
2112.74	9.02728
2112.88	7.96457
2113.02	4.29526
2113.16	5.39151
2113.31	6.19794
2113.45	2.51733
2113.59	7.05243
2113.73	2.78024
2113.87	5.8605
2114.01	9.47073
2114.15	1.99121
2114.29	6.18292
2114.43	6.19391
2114.57	3.21616
2114.72	14.493
2114.86	8.50214
2115	9.71158
2115.14	3.91681
2115.28	5.26447
2115.42	3.42218
2115.56	6.0145
2115.7	5.78317
2115.84	2.51862
2115.98	7.17551
2116.13	3.13705
2116.27	7.29871
2116.41	1.56888
2116.55	3.10287
2116.69	4.6492
2116.83	5.59485
2116.97	1.40118
2117.11	7.95898
2117.25	7.48636
2117.4	1.75391
2117.54	3.71188
2117.68	1.5603
2117.82	9.47235
2117.96	2.39087
2118.1	8.44711
2118.24	3.35764
2118.38	5.49646
2118.52	3.85205
2118.66	4.65427
2118.8	6.5426
2118.95	5.68448
2119.09	1.98831
2119.23	5.12637
2119.37	6.39133
2119.51	6.96762
2119.65	5.4151
2119.79	8.98151
2119.93	6.14322
2120.07	5.40466
2120.21	2.20435
2120.35	7.6058
2120.49	10.9185
2120.64	5.25299
2120.78	4.65369
2120.92	4.07889
2121.06	8.50406
2121.2	2.28647
2121.34	3.34421
2121.48	2.38632
2121.62	4.58926
2121.76	17.9668
2121.9	5.35764
2122.04	4.33801
2122.18	7.97452
2122.32	4.59528
2122.46	6.96112
2122.61	5.52863
2122.75	7.78091
2122.89	2.13074
2123.03	11.1413
2123.17	8.43948
2123.31	5.77759
2123.45	2.93472
2123.59	-0.39917
2123.73	8.70645
2123.87	3.79218
2124.01	9.01874
2124.15	6.7998
2124.29	15.571
2124.44	6.34634
2124.58	6.91266
2124.72	6.65988
2124.86	5.69656
2125	7.26056
2125.14	5.31378
2125.28	7.13901
2125.42	6.32654
2125.56	3.87027
2125.7	3.71768
2125.84	3.21207
2125.98	6.98315
2126.12	3.59338
2126.26	10.4984
2126.4	12.3723
2126.54	5.38229
2126.68	4.27966
2126.83	6.63956
2126.97	2.12387
2127.11	6.17426
2127.25	5.41302
2127.39	5.67368
2127.53	6.323
2127.67	12.7763
2127.81	8.75766
2127.95	2.75238
2128.09	4.10184
2128.23	5.40424
2128.37	20.3289
2128.51	8.45782
2128.65	3.98166
2128.79	8.72836
2128.93	4.3591
2129.07	7.43188
2129.21	14.4842
2129.35	7.13864
2129.49	17.8595
2129.64	8.45963
2129.78	7.15411
2129.92	6.56482
2130.06	9.04013
2130.2	2.61725
2130.34	2.90955
2130.48	2.42426
2130.62	6.36914
2130.76	4.37289
2130.9	5.62317
2131.04	7.14783
2131.18	5.01105
2131.32	8.22723
2131.46	6.78644
2131.6	6.24298
2131.74	4.9537
2131.88	6.47052
2132.02	6.94089
2132.16	10.0117
2132.3	3.40707
2132.44	2.85403
2132.58	4.3895
2132.72	5.31229
2132.86	3.29294
2133	4.15292
2133.14	4.1347
2133.28	8.59933
2133.43	12.7108
2133.57	10.3415
2133.7	4.71399
2133.84	6.59387
2133.99	3.46552
2134.13	4.85669
2134.27	9.01611
2134.41	6.73831
2134.55	5.84958
2134.69	4.46768
2134.83	7.80991
2134.97	5.27521
2135.11	8.22635
2135.25	5.08167
2135.39	7.7627
2135.53	8.34122
2135.67	3.59094
2135.81	4.1283
2135.95	8.51645
2136.09	6.49265
2136.23	2.86029
2136.37	7.58847
2136.51	5.87265
2136.65	9.53784
2136.79	3.9595
2136.93	7.38684
2137.07	8.59503
2137.21	4.93079
2137.35	10.0662
2137.49	5.30408
2137.63	6.97845
2137.77	8.01416
2137.91	6.78058
2138.05	8.76282
2138.19	5.24463
2138.33	6.16089
2138.47	3.40274
2138.61	5.72934
2138.75	5.53278
2138.89	9.25085
2139.03	8.35004
2139.17	7.05588
2139.31	5.43488
2139.45	7.91888
2139.59	8.95572
2139.73	4.21622
2139.87	3.48642
2140.01	6.05554
2140.15	8.39026
2140.29	5.40112
2140.43	5.22903
2140.57	6.95895
2140.71	5.27832
2140.85	7.2251
2140.99	7.3761
2141.13	7.6311
2141.27	13.2525
2141.41	10.4329
2141.55	7.77026
2141.69	7.06064
2141.83	6.20285
2141.97	6.24982
2142.11	5.08081
2142.25	4.06558
2142.39	6.0798
2142.53	4.57904
2142.67	8.28888
2142.81	8.22778
2142.95	4.0733
2143.09	4.12531
2143.23	5.41037
2143.37	4.87775
2143.51	6.69482
2143.65	7.603
2143.79	7.23746
2143.93	9.07089
2144.07	6.89899
2144.21	8.02826
2144.35	5.00562
2144.49	3.40088
2144.63	5.91415
2144.77	8.27277
2144.91	6.2995
2145.05	8.07187
2145.19	8.27615
2145.33	6.44739
2145.45	10.1244
2145.59	5.11597
2145.73	7.55258
2145.87	6.58911
2146.02	8.38849
2146.16	1.70874
2146.3	5.02939
2146.44	13.8746
2146.58	7.33295
2146.73	6.34528
2146.87	6.9693
2147.01	9.67023
2147.15	5.47253
2147.29	9.3533
2147.44	13.282
2147.58	5.3967
2147.72	6.48605
2147.86	7.05154
2148.01	7.35226
2148.15	6.21725
2148.29	6.7294
2148.43	6.819
2148.57	9.40979
2148.72	4.034
2148.86	3.09714
2149	2.09448
2149.14	2.10715
2149.29	5.67703
2149.43	7.69922
2149.57	5.96768
2149.71	7.06918
2149.85	10.036
2150	6.98718
2150.14	5.83609
2150.28	5.81046
2150.42	2.85242
2150.56	6.34189
2150.71	8.04166
2150.85	5.36768
2150.99	5.20187
2151.13	9.18777
2151.27	0.614746
2151.42	2.96811
2151.56	4.64215
2151.7	10.0532
2151.84	7.26819
2151.98	11.8738
2152.12	7.94852
2152.27	8.09579
2152.41	4.7298
2152.55	6.80588
2152.69	6.37589
2152.84	9.52475
2152.98	5.44775
2153.12	5.28336
2153.26	6.61987
2153.4	6.48529
2153.55	9.52438
2153.69	8.28503
2153.83	7.30328
2153.97	10.4106
2154.11	7.15509
2154.25	6.86887
2154.4	8.33304
2154.54	6.26056
2154.68	28.9053
2154.82	8.74936
2154.96	11.7383
2155.11	3.99124
2155.25	4.39706
2155.39	5.99271
2155.53	6.44919
2155.67	7.34363
2155.81	5.94897
2155.96	4.81735
2156.1	7.85696
2156.24	8.0444
2156.38	7.15268
2156.52	11.4705
2156.67	7.20047
2156.81	1.34915
2156.95	2.2363
2157.09	6.84268
2157.23	8.33963
2157.37	4.72806
2157.52	6.85944
2157.66	8.18253
2157.8	6.31738
2157.94	4.59964
2158.08	5.95236
2158.22	7.7952
2158.37	6.64056
2158.51	6.33502
2158.65	8.69162
2158.79	4.90396
2158.93	7.34705
2159.07	15.6411
2159.22	6.4761
2159.36	8.86578
2159.5	8.32199
2159.64	11.003
2159.78	8.30734
2159.92	8.2236
2160.07	10.6324
2160.21	7.64722
2160.35	10.218
2160.49	10.76
2160.63	5.94296
2160.77	6.74176
2160.92	3.38449
2161.06	6.31015
2161.2	4.5976
2161.34	8.74216
2161.48	7.77884
2161.62	6.84662
2161.77	6.00931
2161.91	6.22501
2162.05	2.96777
2162.19	6.27502
2162.33	4.49521
2162.47	5.49487
2162.61	8.35471
2162.76	6.58121
2162.9	3.68271
2163.04	6.0238
2163.18	7.85367
2163.32	9.74243
2163.46	5.44653
2163.61	8.55975
2163.75	8.67514
2163.89	3.79636
2164.03	6.14471
2164.17	5.26944
2164.31	5.81451
2164.45	5.11417
2164.6	4.9986
2164.74	2.71527
2164.88	5.2659
2165.02	8.91602
2165.16	11.5791
2165.3	6.06628
2165.44	0.987946
2165.59	7.90594
2165.73	6.45047
2165.87	3.61356
2166.01	3.45264
2166.15	8.82007
2166.29	0.566986
2166.43	7.0314
2166.58	2.95126
2166.72	5.84894
2166.86	7.09109
2167	1.79526
2167.14	6.98996
2167.28	10.5003
2167.42	4.06161
2167.56	5.00449
2167.71	4.91086
2167.85	5.84369
2167.99	10.0666
2168.13	4.98743
2168.27	3.43207
2168.41	5.80606
2168.55	2.43311
2168.7	2.49298
2168.84	6.43408
2168.98	5.67993
2169.12	3.41901
2169.26	8.34671
2169.4	6.70837
2169.54	5.79208
2169.68	6.37943
2169.82	5.1467
2169.97	7.28665
2170.11	10.0915
2170.25	1.82401
2170.39	5.90637
2170.53	3.02094
2170.67	2.74142
2170.81	5.32037
2170.95	6.17197
2171.1	2.18964
2171.24	5.94705
2171.38	7.08099
2171.52	4.36179
2171.66	0.705627
2171.8	3.74847
2171.94	1.86566
2172.08	3.79547
2172.23	1.2887
2172.37	5.68628
2172.51	3.45605
2172.65	10.3434
2172.79	7.9624
2172.93	2.95547
2173.07	3.29523
2173.21	2.97873
2173.35	3.03174
2173.5	3.42599
2173.64	6.56689
2173.78	6.86597
2173.92	10.6714
2174.06	1.6015
2174.2	3.24222
2174.34	6.68463
2174.48	3.85736
2174.62	4.91266
2174.76	4.34631
2174.91	7.59113
2175.05	0.40274
2175.19	3.79422
2175.33	1.84906
2175.47	9.62814
2175.61	5.46005
2175.75	5.38718
2175.89	8.86505
2176.03	1.45752
2176.18	-0.543579
2176.32	8.86572
2176.46	5.73831
2176.6	4.25116
2176.74	4.15613
2176.88	2.34076
2177.02	9.04108
2177.16	4.29462
2177.3	1.32944
2177.44	5.81592
2177.58	4.4064
2177.73	6.04083
2177.87	5.03915
2178.01	2.96588
2178.15	5.49203
2178.29	10.6237
2178.43	1.55643
2178.57	3.43744
2178.71	23.5893
2178.85	2.47137
2178.99	3.49924
2179.13	6.50378
2179.27	5.48044
2179.42	9.62488
2179.56	3.94946
2179.7	0.166656
2179.84	4.09421
2179.98	5.22092
2180.12	4.53452
2180.26	4.0051
2180.4	5.99683
2180.54	0.603729
2180.68	3.04901
2180.82	4.13657
2180.96	3.18802
2181.1	5.95087
2181.25	6.04166
2181.39	-0.673218
2181.53	5.99048
2181.67	7.5434
2181.81	3.0632
2181.95	5.70023
2182.09	5.47638
2182.23	4.78308
2182.37	8.53958
2182.51	3.90942
2182.65	4.74487
2182.79	1.48538
2182.93	-0.123413
2183.08	3.37677
2183.22	3.38321
2183.36	3.71674
2183.5	3.54205
2183.64	2.65735
2183.78	3.3551
2183.92	1.59866
2184.06	2.82382
2184.2	6.93512
2184.34	6.15845
2184.48	6.05566
2184.62	-0.92926
2184.76	0.823273
2184.9	-1.7695
2185.04	2.76044
2185.18	2.29669
2185.33	6.10178
2185.47	2.72745
2185.61	7.10452
2185.75	7.52609
2185.89	-1.08389
2186.03	7.55978
2186.17	2.36597
2186.31	1.8851
2186.45	4.08911
2186.59	4.17462
2186.73	13.226
2186.87	7.21207
2187.01	6.47589
2187.15	4.24579
2187.29	14.0331
2187.43	5.23233
2187.57	1.75516
2187.71	6.02402
2187.85	1.46017
2188	2.49945
2188.14	0.0201416
2188.28	2.87598
2188.42	0.247925
2188.56	7.24051
2188.7	4.34433
2188.84	3.51166
2188.98	3.5824
2189.12	2.9614
2189.26	5.74457
2189.4	0.102936
2189.54	1.35681
2189.68	2.56967
2189.82	2.38766
2189.96	-2.65924
2190.1	0.234711
2190.24	1.96136
2190.38	1.68219
2190.52	5.58829
2190.66	3.77771
2190.8	1.85526
2190.94	9.88412
2191.08	6.81927
2191.22	6.65921
2191.36	0.254822
2191.51	5.05029
2191.65	2.26181
2191.79	4.5466
2191.93	1.06799
2192.07	5.48361
2192.21	1.90228
2192.35	0.761108
2192.49	3.58286
2192.63	4.8342
2192.77	0.920685
2192.91	-0.273712
2193.05	8.31702
2193.19	1.74136
2193.33	5.30493
2193.47	5.23499
2193.61	3.93317
2193.75	3.30331
2193.89	-1.88965
2194.03	5.31091
2194.17	1.05948
2194.31	4.42645
2194.45	-1.80569
2194.59	6.83429
2194.73	1.04016
2194.87	1.21359
2195.01	2.63422
2195.15	2.94742
2195.29	-0.149109
2195.43	1.46902
2195.57	-2.1123
2195.71	2.26678
2195.85	3.33292
2195.99	5.74622
2196.13	-1.90485
2196.27	2.04865
2196.41	-0.167053
2196.55	4.9639
2196.69	4.51767
2196.83	5.29218
2196.97	2.1084
2197.11	1.94437
2197.25	2.33182
2197.39	5.34531
2197.53	3.83954
2197.67	4.2489
2197.81	0.842133
2197.95	9.23746
2198.09	2.70407
2198.23	1.73779
2198.37	7.90775
2198.51	1.87485
2198.65	1.89188
2198.79	-4.01956
2198.93	0.50293
2199.07	6.75415
2199.21	4.50186
2199.35	3.57098
2199.49	2.56784
2199.63	1.03369
2199.77	7.21738
2199.91	-3.63126
2200.05	0.633636
2200.19	-2.63507
2200.33	3.9502
2200.47	5.14856
2200.61	4.62823
2200.75	8.83121
2200.89	-0.312317
2201.03	1.71515
2201.17	0.417908
2201.31	2.35901
2201.45	5.099
2201.59	3.45776
2201.73	1.74789
2201.87	0.720551
2202.01	-1.81711
2202.15	-0.00012207
2202.29	2.49402
2202.43	4.91818
2202.57	1.03116
2202.71	0.463348
2202.85	1.15414
2202.99	2.0845
2203.13	-0.448029
2203.27	1.67892
2203.41	3.20572
2203.55	-0.376678
2203.69	-0.350433
2203.83	-0.220459
2203.97	5.35013
2204.11	2.00616
2204.25	-0.210083
2204.39	2.39856
2204.53	-2.99835
2204.67	-1.45804
2204.81	-2.55652
2204.95	1.3627
2205.09	3.28735
2205.23	-2.13754
2205.37	0.931488
2205.51	0.0223389
2205.65	1.14417
2205.79	-1.9751
2205.93	0.200195
2206.07	-0.221497
2206.21	-1.99185
2206.35	0.181976
2206.49	-4.67477
2206.63	2.01495
2206.77	-4.65991
2206.91	-2.02414
2207.04	4.76654
2207.18	-3.25668
2207.32	2.15637
2207.46	-0.713959
2207.6	-0.181854
2207.74	-3.04721
2207.88	-3.832
2208.02	2.01019
2208.16	-0.521271
2208.3	1.93661
2208.44	0.205566
2208.58	1.10349
2208.72	4.70834
2208.86	-0.458313
2209	5.28732
2209.14	-3.81784
2209.28	0.549835
2209.42	-0.499115
2209.56	2.28592
2209.7	0.458649
2209.84	0.400635
2209.98	-1.73819
2210.12	4.29678
2210.26	-2.92554
2210.4	6.30463
2210.53	-0.789734
2210.67	-0.165558
2210.81	2.15829
2210.95	-2.12921
2211.09	-0.825714
2211.23	0.0928955
2211.37	-1.15598
2211.51	0.495758
2211.65	1.03732
2211.79	3.3432
2211.93	-0.608948
2212.07	1.05695
2212.21	-7.23376
2212.35	-0.497589
2212.49	2.13016
2212.63	1.19058
2212.77	2.24445
2212.91	-1.40811
2213.05	0.492676
2213.19	3.94299
2213.32	1.24344
2213.46	4.00424
2213.6	-4.38748
2213.74	7.97833
2213.88	-3.21887
2214.02	1.97162
2214.16	1.87491
2214.3	-4.93036
2214.44	13.8727
2214.58	4.04877
2214.72	1.42502
2214.86	3.79016
2215	-2.76541
2215.14	-1.1264
2215.28	-3.5817
2215.41	2.25345
2215.55	3.16605
2215.69	-2.1955
2215.83	-0.703949
2215.97	-0.871368
2216.11	1.87799
2216.25	-1.04041
2216.39	0.765137
2216.53	2.36588
2216.67	-0.103027
2216.81	2.04288
2216.95	1.22604
2217.09	-0.161224
2217.23	6.37375
2217.37	5.25024
2217.5	4.00516
2217.64	-1.3017
2217.78	-1.12823
2217.92	-0.590576
2218.06	3.39508
2218.2	-0.0447693
2218.34	-0.851074
2218.48	-1.7912
2218.62	2.18011
2218.76	9.19916
2218.9	-1.5853
2219.04	4.44324
2219.17	2.1286
2219.31	2.26178
2219.45	-2.57108
2219.59	-0.0489197
2219.73	2.56937
2219.87	5.56116
2220.01	-5.00958
2220.15	4.82758
2220.29	0.77475
2220.43	3.25241
2220.57	-1.78821
2220.7	1.40259
2220.84	2.22391
2220.98	2.68637
2221.12	1.16925
2221.26	-1.26794
2221.4	0.570801
2221.54	-0.154785
2221.68	0.0212708
2221.82	5.31036
2221.96	4.53064
2222.1	8.19678
2222.23	-2.54437
2222.37	2.60712
2222.51	6.66022
2222.65	-1.30148
2222.79	3.42154
2222.93	1.73959
2223.07	-0.993164
2223.21	2.64941
2223.35	1.42505
2223.49	11.7212
2223.63	-1.88058
2223.76	0.238281
2223.9	-0.0207825
2224.04	-2.7728
2224.18	-0.0631104
2224.32	6.41953
2224.46	1.00769
2224.6	-2.27316
2224.74	-1.69424
2224.88	2.95926
2225.01	3.8573
2225.15	1.83136
2225.29	1.34686
2225.43	-0.0811768
2225.57	7.76291
2225.71	0.0239563
2225.85	-1.37125
2225.99	3.62158
2226.13	0.403412
2226.26	4.63385
2226.4	-1.78677
2226.54	-0.0317383
2226.68	1.30319
2226.82	5.39182
2226.96	2.80682
2227.1	-0.536713
2227.24	2.09964
2227.38	-2.17142
2227.51	4.06738
2227.65	5.41452
2227.79	5.87167
2227.93	3.51587
2228.07	2.34225
2228.21	5.28281
2228.35	-1.65146
2228.49	-0.876617
2228.62	-0.0714111
2228.76	-2.67288
2228.9	5.08759
2229.04	0.0657043
2229.18	2.67972
2229.32	2.86404
2229.46	-1.62875
2229.6	-4.71921
2229.73	-0.76181
2229.87	-2.37286
2230.01	-0.48645
2230.15	-0.451294
2230.29	-1.57837
2230.43	4.49911
2230.57	3.21527
2230.71	2.92661
2230.84	2.10782
2230.98	7.099
2231.12	-0.443726
2231.26	1.08032
2231.4	1.47931
2231.54	4.45685
2231.68	-2.7991
2231.81	1.05222
2231.95	1.32874
2232.09	1.45758
2232.23	1.02393
2232.37	2.57458
2232.51	5.26318
2232.65	2.95816
2232.79	5.85257
2232.92	3.3714
2233.06	3.6442
2233.2	0.419708
2233.34	2.32516
2233.48	1.42313
2233.62	3.65314
2233.76	5.46069
2233.89	1.87567
2234.03	0.274109
2234.17	4.92941
2234.31	-0.863037
2234.45	2.93015
2234.59	0.328644
2234.72	2.0123
2234.86	-3.96628
2235	-0.0258484
2235.14	1.34277
2235.28	5.21991
2235.42	-0.489624
2235.56	0.526154
2235.69	11.5632
2235.83	2.40796
2235.97	2.54907
2236.11	-2.73218
2236.25	1.68756
2236.39	1.40475
2236.52	3.98975
2236.66	3.905
2236.8	0.245453
2236.94	0.418274
2237.08	1.70328
2237.22	8.29532
2237.35	3.86411
2237.49	0.665527
2237.63	-0.358154
2237.77	5.14532
2237.91	1.02591
2238.05	5.38458
2238.19	2.36606
2238.32	1.60867
2238.46	5.01712
2238.6	3.67856
2238.74	1.87036
2238.88	0.0561829
2239.01	0.200226
2239.15	-1.98282
2239.29	1.94986
2239.43	4.82666
2239.57	1.3226
2239.71	-1.75296
2239.84	2.91083
2239.98	-1.28619
2240.12	2.91687
2240.26	4.96234
2240.4	6.63916
2240.54	-3.14691
2240.67	3.37646
2240.81	-0.443542
2240.95	3.78403
2241.09	0.705811
2241.23	2.07816
2241.37	1.49338
2241.5	-0.278259
2241.64	5.17172
2241.78	-0.432037
2241.92	6.49384
2242.06	6.27155
2242.2	4.71686
2242.33	2.29584
2242.47	1.64001
2242.61	-0.210876
2242.75	1.66913
2242.89	0.875854
2243.02	5.16415
2243.16	3.96341
2243.3	1.4118
2243.44	3.79773
2243.58	3.74908
2243.72	2.66
2243.85	8.00281
2243.99	1.36349
2244.13	1.74097
2244.27	6.02841
2244.41	1.5213
2244.54	0.583496
2244.68	0.403717
2244.82	8.11725
2244.96	3.91843
2245.1	6.5126
2245.23	4.02844
2245.37	4.29233
2245.51	1.73401
2245.65	4.19016
2245.79	4.20169
2245.92	3.40958
2246.06	5.59528
2246.2	3.55734
2246.34	3.84845
2246.48	0.0333862
2246.61	1.62366
2246.75	4.29626
2246.89	6.79449
2247.03	10.1005
2247.17	-0.566376
2247.3	-0.79306
2247.44	4.80527
2247.58	8.5704
2247.72	2.80362
2247.86	0.932068
2247.99	0.312347
2248.13	0.70282
2248.27	-1.30545
2248.41	2.86462
2248.55	1.68845
2248.68	0.0692444
2248.82	6.81754
2248.96	7.92511
2249.1	-1.96509
2249.24	2.66623
2249.37	-1.52087
2249.51	5.07635
2249.65	1.12427
2249.79	5.70068
2249.92	1.24585
2250.06	4.39166
2250.2	3.58588
2250.34	1.4823
2250.48	1.49341
2250.61	1.28476
2250.75	7.81799
2250.89	3.97253
2251.03	1.91174
2251.17	3.43121
2251.3	5.31464
2251.44	5.578
2251.58	5.5289
2251.72	-5.11127
2251.85	0.492981
2251.99	2.76254
2252.13	0.0837097
2252.27	-3.53497
2252.41	3.57825
2252.54	5.45538
2252.68	4.64218
2252.82	4.8219
2252.96	28.2468
2253.09	6.46643
2253.23	3.4949
2253.37	-0.596222
2253.51	4.80075
2253.65	1.41272
2253.78	4.30823
2253.92	1.2688
2254.06	-0.620361
2254.2	5.58856
2254.33	0.32486
2254.47	-0.595367
2254.61	-1.82959
2254.75	4.5769
2254.88	12.8658
2255.02	4.74756
2255.16	3.30103
2255.3	2.60535
2255.44	2.75351
2255.57	2.99207
2255.71	1.91226
2255.85	1.18939
2255.99	8.82651
2256.12	7.83765
2256.26	10.7644
2256.4	4.0079
2256.54	6.97229
2256.67	4.63287
2256.81	5.18335
2256.95	5.0798
2257.09	5.11798
2257.22	1.57758
2257.36	-1.37216
2257.5	3.08127
2257.64	11.0646
2257.77	5.84897
2257.91	3.72278
2258.05	1.64075
2258.19	2.83676
2258.32	-2.23236
2258.46	1.78589
2258.6	11.8586
2258.74	-0.714355
2258.87	5.61899
2259.01	4.61105
2259.15	2.61942
2259.29	8.51251
2259.42	5.89258
2259.56	5.53238
2259.7	7.69385
2259.84	10.4713
2259.97	7.76431
2260.11	8.24591
2260.25	8.76556
2260.39	2.92316
2260.52	5.21545
2260.66	-0.123383
2260.8	6.4303
2260.94	6.41559
2261.07	7.5372
2261.21	3.7088
2261.35	3.52325
2261.49	2.73178
2261.62	-0.923737
2261.76	6.50415
2261.9	7.81271
2262.04	1.9631
2262.17	1.40372
2262.31	14.3985
2262.45	8.04517
2262.58	2.19565
2262.72	1.62512
2262.86	3.75687
2263	3.03485
2263.13	5.12732
2263.27	2.64075
2263.41	-0.212097
2263.54	4.93689
2263.68	3.6394
2263.82	4.0867
2263.96	3.76462
2264.09	-0.368591
2264.23	3.10806
2264.37	2.75049
2264.51	7.59485
2264.64	2.27655
2264.78	0.643005
2264.92	2.21909
2265.06	3.2012
2265.19	4.14706
2265.33	5.46701
2265.47	0.580292
2265.6	6.37598
2265.74	1.24405
2265.88	4.70554
2266.02	2.21646
2266.15	6.10727
2266.29	1.62213
2266.43	4.93622
2266.56	-2.12149
2266.7	-0.981415
2266.84	6.15381
2266.98	0.718292
2267.11	3.77588
2267.25	2.44553
2267.39	4.99634
2267.52	8.87204
2267.66	0.474884
2267.8	6.56479
2267.94	7.41931
2268.07	1.35327
2268.21	8.25745
2268.35	6.12613
2268.48	4.88373
2268.62	2.05316
2268.76	2.70093
2268.9	6.10834
2269.03	0.0108032
2269.17	-0.351288
2269.31	2.20453
2269.44	4.28873
2269.58	1.6543
2269.72	5.39334
2269.85	5.36133
2269.99	2.41443
2270.13	8.55212
2270.26	6.88852
2270.4	0.571655
2270.54	9.6102
2270.68	12.592
2270.81	11.0123
2270.95	1.15137
2271.09	11.2786
2271.22	4.21042
2271.36	-1.43469
2271.5	0.0345154
2271.64	5.63818
2271.77	5.66412
2271.91	2.34546
2272.05	4.44928
2272.18	5.87482
2272.32	5.29028
2272.46	2.05664
2272.59	4.68243
2272.73	5.31723
2272.87	3.2196
2273	6.99112
2273.14	5.1788
2273.28	8.21664
2273.42	-1.28482
2273.55	2.04938
2273.69	4.9856
2273.83	-0.544983
2273.96	4.10825
2274.1	1.33353
2274.24	7.02997
2274.37	4.81726
2274.51	-0.64563
2274.65	13.9597
2274.78	3.39297
2274.92	3.16962
2275.06	1.40121
2275.19	3.49304
2275.33	3.53125
2275.47	3.83179
2275.6	4.51297
2275.74	4.25015
2275.88	2.76923
2276.01	6.75024
2276.15	1.22266
2276.29	4.96976
2276.42	5.64548
2276.56	4.92398
2276.7	1.7872
2276.83	1.70694
2276.97	1.50259
2277.11	2.24554
2277.25	0.436981
2277.38	4.64853
2277.52	3.84265
2277.66	13.8442
2277.79	8.12286
2277.93	3.10059
2278.06	-0.980499
2278.2	8.00677
2278.34	5.93506
2278.47	6.89059
2278.61	3.21783
2278.75	1.1972
2278.89	3.10968
2279.02	-0.0360413
2279.16	4.96277
2279.3	0.0597229
2279.43	4.15353
2279.57	17.9822
2279.71	-1.30652
2279.84	4.79614
2279.98	9.64883
2280.11	4.57419
2280.25	6.95734
2280.39	7.97699
2280.52	3.48959
2280.66	4.7861
2280.8	6.34866
2280.93	1.95538
2281.07	1.07764
2281.21	0.809021
2281.34	-0.47644
2281.48	3.08804
2281.62	4.57111
2281.75	4.99329
2281.89	1.14392
2282.03	4.01154
2282.16	7.00006
2282.3	4.65204
2282.44	12.9255
2282.57	5.29327
2282.71	0.7771
2282.85	0.675537
2282.98	2.39505
2283.12	6.32626
2283.25	6.42596
2283.39	1.23544
2283.53	0.0256958
2283.66	5.2507
2283.8	-0.925842
2283.94	6.4278
2284.07	1.15182
2284.21	4.30466
2284.35	6.66708
2284.48	7.46033
2284.62	3.87503
2284.76	1.04587
2284.89	5.72723
2285.03	4.18826
2285.16	2.42999
2285.3	1.02902
2285.44	3.67609
2285.57	2.31348
2285.71	10.3048
2285.85	-1.40134
2285.98	8.19305
2286.12	6.99631
2286.26	2.29288
2286.39	4.20447
2286.53	0.765472
2286.66	2.5011
2286.8	3.0376
2286.94	-1.0062
2287.07	0.631287
2287.21	1.24573
2287.35	1.92984
2287.48	3.23901
2287.62	0.51593
2287.75	5.62943
2287.89	7.918
2288.03	3.22549
2288.16	1.30182
2288.3	1.48929
2288.44	8.23758
2288.57	-0.706329
2288.71	5.39023
2288.84	2.93481
2288.98	4.28018
2289.12	5.63361
2289.25	2.07831
2289.39	1.48535
2289.53	-0.271515
2289.66	2.38898
2289.8	-1.41843
2289.93	-0.23407
2290.07	-4.43173
2290.21	4.3461
2290.34	1.15802
2290.48	4.52502
2290.61	9.3129
2290.75	1.72678
2290.89	2.94608
2291.02	1.37115
2291.16	0.948792
2291.3	-0.200378
2291.43	3.37585
2291.57	-1.2178
2291.7	6.45343
2291.84	0.482788
2291.98	2.49823
2292.11	0.730011
2292.25	0.154114
2292.38	8.19275
2292.52	-2.13141
2292.66	1.82788
2292.79	-2.56937
2292.93	-1.89722
2293.06	3.67041
2293.2	2.35995
2293.34	3.12311
2293.47	-2.21326
2293.61	2.93967
2293.74	4.49606
2293.88	0.523712
2294.02	5.05734
2294.15	-0.829468
2294.29	1.45163
2294.42	0.398468
2294.56	4.14972
2294.7	0.657196
2294.83	-1.15863
2294.97	-0.981171
2295.1	1.7991
2295.24	3.02405
2295.38	4.69287
2295.51	1.20117
2295.65	4.82117
2295.78	2.71735
2295.92	5.49292
2296.06	-2.10052
2296.19	1.09702
2296.33	3.9386
2296.46	1.42459
2296.6	3.34436
2296.74	7.87256
2296.87	-0.238068
2297.01	1.36118
2297.14	0.0274048
2297.28	-2.24478
2297.41	9.4191
2297.55	-0.257172
2297.69	0.657593
2297.82	-1.57681
2297.96	2.31436
2298.09	9.63046
2298.23	1.21442
2298.37	1.98734
2298.5	-3.25662
2298.64	0.160431
2298.77	5.18716
2298.91	1.42245
2299.04	3.81409
2299.18	0.548035
2299.32	5.50491
2299.45	3.0903
2299.59	-0.528351
2299.72	-1.80362
2299.86	1.68073
2299.99	1.50601
2300.13	-2.68356
2300.27	-0.432983
2300.4	0.855804
2300.54	0.135193
2300.67	3.36441
2300.81	2.18195
2300.94	3.63065
2301.08	2.63754
2301.22	1.14972
2301.35	9.28693
2301.49	-3.94165
2301.62	-0.437836
2301.76	5.30396
2301.89	3.16864
2302.03	1.14218
2302.17	1.39923
2302.3	-0.570404
2302.44	4.07211
2302.57	1.12711
2302.71	-0.285461
2302.84	3.44327
2302.98	1.31818
2303.11	1.98434
2303.25	-2.2648
2303.39	3.29749
2303.52	-1.02396
2303.66	-0.232086
2303.79	-1.99005
2303.93	3.36292
2304.06	1.22528
2304.2	-1.73972
2304.33	12.8982
2304.47	1.25064
2304.61	11.7386
2304.74	-0.116272
2304.88	5.15622
2305.01	-3.83466
2305.15	-0.728668
2305.28	-0.0344238
2305.42	-2.19064
2305.55	1.16431
2305.69	0.0256958
2305.83	-2.74261
2305.96	-2.0257
2306.1	3.62231
2306.23	2.37695
2306.37	7.01273
2306.5	12.8651
2306.64	1.20941
2306.77	-3.29001
2306.91	-5.73978
2307.04	-0.5914
2307.18	-2.82639
2307.32	3.22601
2307.45	-4.60114
2307.59	-3.37454
2307.72	-2.54565
2307.86	2.74954
2307.99	3.17575
2308.13	1.0527
2308.26	3.08994
2308.4	-0.226929
2308.53	-4.92154
2308.67	-2.50912
2308.81	-0.610565
2308.94	3.08054
2309.08	0.508942
2309.21	0.185883
2309.35	1.017
2309.48	-2.79532
2309.62	-0.313843
2309.75	4.18823
2309.89	-1.03683
2310.02	-2.39917
2310.16	5.26697
2310.29	7.81271
2310.43	0.838867
2310.56	3.0954
2310.7	2.32242
2310.83	6.98376
2310.97	-1.64981
2311.11	2.41837
2311.24	0.552887
2311.38	3.95901
2311.51	5.51276
2311.65	-3.13409
2311.78	-1.09225
2311.92	-2.77457
2312.05	-2.28317
2312.19	2.43588
2312.32	6.15878
2312.46	-0.328522
2312.59	1.36115
2312.73	-1.81641
2312.86	-0.687897
2313	-6.60431
2313.13	-1.26572
2313.27	5.35745
2313.4	-3.77301
2313.54	-1.9787
2313.67	0.0618896
2313.81	-1.50226
2313.95	-2.90836
2314.08	4.2077
2314.22	-5.70508
2314.35	4.89911
2314.48	4.53458
2314.62	-1.36874
2314.76	3.58124
2314.89	0.196655
2315.03	1.26376
2315.16	0.167877
2315.3	-3.00198
2315.43	-0.566132
2315.57	-1.38925
2315.7	0.775055
2315.84	2.54504
2315.97	-1.39282
2316.11	1.12753
2316.24	-2.23883
2316.38	3.38239
2316.51	2.36011
2316.65	3.08044
2316.78	1.23376
2316.92	-1.91586
2317.05	1.76047
2317.19	-0.8349
2317.32	-2.03635
2317.46	0.468933
2317.59	8.58115
2317.73	-4.19699
2317.86	-1.08527
2318	0.145813
2318.13	-1.40884
2318.27	-0.0981445
2318.4	-0.115845
2318.54	-1.5899
2318.67	4.97086
2318.81	-0.217804
2318.94	2.92877
2319.08	-6.52747
2319.21	-3.79037
2319.35	1.41055
2319.48	4.15808
2319.62	-1.64429
2319.75	-0.669403
2319.89	6.20963
2320.02	0.650604
2320.16	0.753082
2320.29	-0.582947
2320.42	3.62674
2320.56	2.89401
2320.69	-1.80389
2320.83	0.682465
2320.96	-3.24591
2321.1	-2.08279
2321.23	-0.408997
2321.37	-2.28253
2321.5	-0.398041
2321.64	-1.21429
2321.77	4.7337
2321.91	-2.48035
2322.04	1.52039
2322.18	2.86484
2322.31	0.994476
2322.45	-6.56445
2322.58	-4.698
2322.72	3.79694
2322.85	1.33963
2322.99	-0.939575
2323.12	1.84656
2323.26	4.33411
2323.39	-3.28253
2323.53	-0.964447
2323.66	4.74936
2323.79	3.65799
2323.93	-0.647736
2324.06	2.60663
2324.2	-1.28732
2324.33	1.22021
2324.47	-0.694427
2324.6	0.906555
2324.74	5.83661
2324.87	-0.52597
2325.01	-3.3746
2325.14	-1.79077
2325.28	3.30878
2325.41	-3.77475
2325.55	0.0939331
2325.68	0.664551
2325.81	-1.24918
2325.95	-0.357422
2326.08	3.6416
2326.22	3.55637
2326.35	2.43497
2326.49	2.76935
2326.62	0.671356
2326.76	0.47049
2326.89	0.605011
2327.03	0.561646
2327.16	2.70914
2327.3	0.957428
2327.43	-1.75177
2327.56	1.65146
2327.7	3.26099
2327.83	6.34073
2327.97	7.70386
2328.1	5.30948
2328.24	9.5173
2328.37	18.5948
2328.51	10.9607
2328.64	13.4144
2328.78	5.55054
2328.91	0.614288
2329.04	1.13815
2329.18	-2.85165
2329.31	7.16534
2329.45	0.323669
2329.58	-2.05841
2329.72	6.53696
2329.85	-4.0741
2329.99	-2.74466
2330.12	-1.50259
2330.25	-4.39905
2330.39	-3.0329
2330.52	3.02991
2330.66	1.84973
2330.79	2.47415
2330.93	-1.96616
2331.06	1.79135
2331.2	-2.33716
2331.33	-0.745422
2331.46	-5.00912
2331.6	0.783478
2331.73	2.73679
2331.87	2.43475
2332	7.43994
2332.14	2.88898
2332.27	-5.72729
2332.4	-1.24042
2332.54	-2.60443
2332.67	1.87897
2332.81	-2.2381
2332.94	-0.940002
2333.08	0.00747681
2333.21	-2.43585
2333.34	-2.59146
2333.48	-3.81943
2333.61	2.01553
2333.75	-0.00268555
2333.88	4.05099
2334.02	0.982605
2334.15	2.58762
2334.29	-3.1575
2334.42	-2.46317
2334.55	-0.0167847
2334.69	3.70502
2334.82	0.400696
2334.96	-1.84747
2335.09	3.99698
2335.23	-0.236664
2335.36	3.0376
2335.49	0.177643
2335.63	2.49097
2335.76	-0.0918579
2335.9	5.75339
2336.03	-0.480591
2336.17	0.181702
2336.3	-0.0449829
2336.43	1.52255
2336.57	-1.12967
2336.7	0.798981
2336.84	-0.264374
2336.97	12.4953
2337.1	-1.85257
2337.24	1.99661
2337.37	-4.32007
2337.51	0.960876
2337.64	-0.615631
2337.77	3.74188
2337.91	-0.875519
2338.04	-1.58441
2338.18	-0.944
2338.31	-0.553284
2338.45	1.72449
2338.58	-0.842682
2338.71	-4.14392
2338.85	-3.55014
2338.98	-2.08752
2339.12	-1.38852
2339.25	-1.09717
2339.38	-0.651886
2339.52	1.43573
2339.65	-3.17447
2339.79	2.43982
2339.92	2.55438
2340.05	1.09357
2340.19	-1.50775
2340.32	2.56503
2340.46	2.45331
2340.59	-1.58594
2340.72	-1.52176
2340.86	0.179016
2340.99	1.32413
2341.13	1.87296
2341.26	-1.52057
2341.39	2.50031
2341.53	7.88687
2341.66	1.14484
2341.8	-1.54813
2341.93	-1.83249
2342.06	0.141083
2342.2	-1.95004
2342.33	-0.62323
2342.47	-1.77847
2342.6	1.77551
2342.73	-1.37576
2342.87	1.47339
2343	0.267944
2343.13	-2.11465
2343.27	-1.56009
2343.4	0.462463
2343.54	1.77774
2343.67	1.7283
2343.8	1.26413
2343.94	1.02383
2344.07	0.796783
2344.21	-2.45819
2344.34	1.00925
2344.47	-1.47659
2344.61	-0.435272
2344.74	3.29874
2344.87	-1.98663
2345.01	2.94336
2345.14	1.75278
2345.28	2.12714
2345.41	-2.73734
2345.54	-0.661652
2345.68	1.49899
2345.81	0.812531
2345.94	-0.831421
2346.08	4.05463
2346.21	2.37531
2346.35	-1.74142
2346.48	-2.07968
2346.61	1.39731
2346.75	-0.0864563
2346.88	-0.830353
2347.02	0.908569
2347.15	0.0223083
2347.28	0.797241
2347.42	1.33029
2347.55	2.94455
2347.68	-0.0766296
2347.82	-1.96851
2347.95	-0.358093
2348.08	3.71268
2348.22	2.02759
2348.35	1.02722
2348.49	-1.05878
2348.62	0.72052
2348.75	0.213074
2348.89	3.06323
2349.02	7.50003
2349.15	3.60361
2349.29	-0.466431
2349.42	2.27435
2349.55	1.76538
2349.69	-0.242157
2349.82	0.689941
2349.96	0.968567
2350.09	-0.012146
2350.22	-1.44205
2350.36	-0.262146
2350.49	1.00943
2350.62	-1.43503
2350.76	-1.68127
2350.89	-1.72232
2351.02	0.654327
2351.16	0.0339966
2351.29	-0.744507
2351.42	2.20609
2351.56	4.07864
2351.69	6.90485
2351.83	-0.413055
2351.96	2.09332
2352.09	3.93005
2352.21	-0.26825
2352.35	-3.79346
2352.48	2.10953
2352.62	-0.689697
2352.75	1.94611
2352.89	-3.99161
2353.03	-5.03427
2353.16	2.73889
2353.3	-4.96536
2353.43	1.29428
2353.57	-1.93076
2353.71	3.68369
2353.84	5.76105
2353.98	-2.49905
2354.11	-2.43503
2354.25	16.1397
2354.38	1.41281
2354.52	-2.33838
2354.66	-1.22659
2354.79	0.643158
2354.93	0.774048
2355.06	-1.86835
2355.2	5.37497
2355.34	4.22534
2355.47	-1.40625
2355.61	5.53055
2355.74	0.700989
2355.88	-6.96927
2356.01	-0.853699
2356.15	-0.0643311
2356.29	0.14267
2356.42	-1.24329
2356.56	-0.168549
2356.69	-0.372833
2356.83	3.5535
2356.96	-2.79672
2357.1	-1.02176
2357.24	-3.61545
2357.37	-1.77765
2357.51	3.41116
2357.64	3.59845
2357.78	3.23093
2357.91	1.79611
2358.05	-3.1431
2358.19	-0.544708
2358.32	1.49432
2358.46	-5.01059
2358.59	4.30215
2358.73	0.193329
2358.86	3.35123
2359	1.44583
2359.14	-0.677246
2359.27	0.549866
2359.41	0.115509
2359.54	13.3821
2359.68	2.02267
2359.81	0.294128
2359.95	3.22736
2360.09	4.0874
2360.22	2.77484
2360.36	-3.75641
2360.49	-1.55234
2360.63	6.36685
2360.76	3.18756
2360.9	-3.40842
2361.03	-1.91953
2361.17	-1.58838
2361.31	-1.29501
2361.44	-0.165283
2361.58	0.0632935
2361.71	2.26538
2361.85	0.305267
2361.98	7.70789
2362.12	0.55426
2362.25	-4.19409
2362.39	5.05792
2362.53	3.18466
2362.66	-0.390259
2362.8	0.455597
2362.93	0.303284
2363.07	-3.32529
2363.2	-0.968719
2363.34	-0.562622
2363.47	6.29486
2363.61	2.86642
2363.74	6.13684
2363.88	-1.86209
2364.02	1.74768
2364.15	-1.69055
2364.29	2.88242
2364.42	-0.0192566
2364.56	0.791138
2364.69	3.35431
2364.83	5.85751
2364.96	-2.323
2365.1	4.86871
2365.24	-1.19409
2365.37	-2.18906
2365.51	-0.849243
2365.64	1.27609
2365.78	2.35431
2365.91	2.26263
2366.05	2.63879
2366.18	-3.29236
2366.32	-4.50613
2366.45	0.92157
2366.59	1.00137
2366.72	1.16025
2366.86	-1.92807
2366.99	2.34442
2367.13	-1.22058
2367.26	3.76373
2367.4	2.61917
2367.54	-4.35599
2367.67	2.11197
2367.81	-0.381409
2367.94	2.23526
2368.08	4.30219
2368.21	-0.593872
2368.35	1.5567
2368.48	-3.93674
2368.62	2.37338
2368.75	5.5481
2368.89	-2.43939
2369.02	-0.809448
2369.16	3.05704
2369.29	-0.124176
2369.43	1.15506
2369.56	2.23593
2369.7	2.18396
2369.83	1.47147
2369.97	1.66653
2370.1	-3.28284
2370.24	4.12894
2370.38	1.89346
2370.51	-0.0218506
2370.65	4.05444
2370.78	0.484528
2370.92	-1.77573
2371.05	0.303558
2371.19	-1.04492
2371.32	5.48218
2371.46	0.00567627
2371.59	5.96616
2371.73	5.44919
2371.86	3.10272
2372	0.134613
2372.13	4.82266
2372.27	5.21939
2372.4	-1.10452
2372.54	3.56894
2372.67	1.04584
2372.81	-1.98691
2372.94	7.4624
2373.08	4.01688
2373.21	2.6196
2373.35	3.13971
2373.48	-1.16708
2373.62	3.65854
2373.75	3.59207
2373.89	2.00269
2374.02	-1.55597
2374.16	1.95999
2374.29	0.264832
2374.43	-2.21539
2374.56	1.88367
2374.7	-0.704681
2374.83	4.65536
2374.97	1.77179
2375.1	0.638123
2375.24	1.10007
2375.37	2.25894
2375.51	3.40176
2375.64	0.700073
2375.78	7.91989
2375.91	-0.993286
2376.05	3.98358
2376.18	-1.28961
2376.32	-3.66464
2376.45	0.829895
2376.59	6.38184
2376.72	0.102264
2376.86	2.46515
2376.99	2.37985
2377.13	-2.67746
2377.26	1.61942
2377.4	0.315735
2377.53	4.10925
2377.67	2.48145
2377.8	-2.6413
2377.94	-3.09229
2378.07	-3.33282
2378.21	-7.69049
2378.34	-0.31192
2378.48	-0.750458
2378.61	2.73901
2378.75	5.57037
2378.88	-1.57285
2379.02	-0.619232
2379.15	1.2377
2379.29	-0.183563
2379.42	2.32654
2379.56	-1.70853
2379.69	5.88043
2379.83	-1.70364
2379.96	-1.28476
2380.09	-1.92371
2380.23	3.86267
2380.36	-0.515594
2380.5	-1.63547
2380.63	1.7525
2380.77	7.10236
2380.9	4.14713
2381.04	6.68793
2381.17	-0.269562
2381.31	1.67352
2381.44	0.440369
2381.58	4.35812
2381.71	3.03903
2381.85	4.11169
2381.98	1.46597
2382.12	2.22525
2382.25	10.9699
2382.39	2.48334
2382.52	13.3934
2382.65	-2.1543
2382.79	4.15787
2382.92	-4.23123
2383.06	-3.12241
2383.19	1.73911
2383.33	-1.99283
2383.46	2.63501
2383.6	3.45047
2383.73	3.89212
2383.87	-0.11792
2384	1.91693
2384.14	9.84775
2384.27	3.17398
2384.4	3.59274
2384.54	2.58698
2384.67	-1.32275
2384.81	-2.20596
2384.94	-0.562531
2385.08	1.22226
2385.21	5.62396
2385.35	2.88635
2385.48	6.74362
2385.62	-1.30753
2385.75	2.08905
2385.88	9.15546
2386.02	0.591644
2386.15	-0.282288
2386.29	1.09848
2386.42	4.94629
2386.56	0.601135
2386.69	2.25424
2386.83	0.969757
2386.96	-0.345276
2387.1	-1.42325
2387.23	5.37753
2387.36	-0.660706
2387.5	2.39313
2387.63	1.52917
2387.77	3.92865
2387.9	3.09393
2388.04	-0.230988
2388.17	2.87769
2388.31	1.35672
2388.44	-1.24088
2388.57	1.25928
2388.71	3.17447
2388.84	4.28473
2388.98	3.00153
2389.11	-0.710907
2389.25	7.8428
2389.38	0.71698
2389.52	-0.250366
2389.65	1.78455
2389.78	7.27026
2389.92	3.31042
2390.05	3.75208
2390.19	3.71066
2390.32	2.04889
2390.46	1.22482
2390.59	-4.58868
2390.73	19.0799
2390.86	2.93982
2390.99	2.09576
2391.13	5.13867
2391.26	-1.12714
2391.4	0.788361
2391.53	0.187103
2391.67	5.19385
2391.8	-3.56897
2391.93	1.6734
2392.07	-0.522675
2392.2	1.33011
2392.34	5.19489
2392.47	1.81049
2392.6	0.58728
2392.74	-2.444
2392.87	1.59283
2393.01	-5.89468
2393.14	-1.22733
2393.28	3.11487
2393.41	-1.95026
2393.54	-0.469879
2393.68	0.079895
2393.81	-1.23431
2393.95	-0.348389
2394.08	-3.50024
2394.22	2.70206
2394.35	1.17191
2394.48	7.55423
2394.62	-1.02356
2394.75	1.80252
2394.89	-0.770538
2395.02	6.19141
2395.16	-0.811768
2395.29	-0.49472
2395.42	-0.0387268
2395.56	-0.643616
2395.69	0.319519
2395.83	-1.63297
2395.96	-1.13135
2396.09	0.249878
2396.23	-0.59668
2396.36	-2.96362
2396.5	0.922119
2396.63	0.402618
2396.76	1.30249
2396.9	-4.17099
2397.03	-0.750092
2397.17	-3.64621
2397.3	1.00076
2397.44	2.70566
2397.57	4.08539
2397.7	-0.624512
2397.84	-0.310883
2397.97	-1.4754
2398.11	3.34827
2398.24	0.39325
2398.37	3.91495
2398.51	1.91916
2398.64	4.27631
2398.78	-0.424255
2398.91	0.861908
2399.04	-2.87274
2399.18	3.01685
2399.31	5.66779
2399.44	0.902771
2399.58	0.404663
2399.71	-2.2955
2399.85	-4.22458
2399.98	0.448059
