#Acq. time (s)=	45
#Accumulations=	2
#Range (cm-¹)=	1200...2399
#Windows=	6
#Auto scanning=	Off
#Autofocus=	Off
#Macrospot=	Off
#AutoExposure=	Off
#Spike filter=	Multiple accum.
#Delay time (s)=	2
#Binning=	1
#Readout mode=	Signal
#DeNoise=	Off
#ICS correction=	On
#Dark correction=	Off
#Inst. Process=	Off
#Detector Gain=	Best Dynamic
#Detector ADC=	50 kHz EM
#Detector EM gain=	100
#Detector temperature (°C)=	-60.09
#Instrument=	LabRAM HR Evol
#Detector=	SIN-EM FIVIS
#Objective=	x100_VIS_LWD
#Grating=	1800 (450-850nm)
#ND Filter=	100%
#Laser=	633nm_Edge
#Hole=	49.98
#Temperature=	0
#Range=	Visible
#StageXY=	75x50mm Scan+
#StageZ=	Z motor
#X (µm)=	0
#Y (µm)=	0
#Z (µm)=	57.9
#Full time(mm:ss)=	9:32
#Project=	21_11_22
#Sample=	BU04w
#Site=	
#Title=	BU04w-A-FF3-FI03-V_1800 (450-850nm)_633nm_Edge_100%_x100_VIS_LWD_H50um_45sX2
#Remark=	
#Date=	22.11.2021 12:24
#Acquired=	22.11.2021 12:24:12
#Base:Fit=	16.12.2021 16:15:35
#Base:Fit=	16.12.2021 16:22:50
#Base:Sub=	16.12.2021 16:22:52
1201.04	4.48245
1201.21	8.07632
1201.39	5.51099
1201.56	2.95398
1201.73	1.18887
1201.9	4.13409
1202.08	11.0354
1202.25	3.09598
1202.42	5.9075
1202.59	0.590118
1202.76	0.975739
1202.94	5.76364
1203.11	0.722443
1203.28	2.84671
1203.45	6.90921
1203.62	8.32233
1203.8	3.1084
1203.97	5.94861
1204.14	8.14972
1204.31	-3.17929
1204.48	2.02676
1204.66	4.69757
1204.83	7.10587
1205	-0.590485
1205.17	-2.07129
1205.34	2.37161
1205.52	4.33701
1205.69	0.113281
1205.86	0.958862
1206.03	4.91519
1206.2	0.962982
1206.38	-0.64209
1206.55	5.89633
1206.72	1.24197
1206.89	-0.705933
1207.06	-1.43271
1207.24	3.20654
1207.41	2.61792
1207.58	-1.3591
1207.75	-3.75916
1207.92	-2.66458
1208.09	0.265625
1208.27	2.61261
1208.44	5.76196
1208.61	2.90204
1208.78	-2.27228
1208.95	4.33978
1209.13	-1.43466
1209.3	1.32523
1209.47	-3.62985
1209.64	-0.0863953
1209.81	3.32297
1209.98	-0.452362
1210.16	4.23376
1210.33	-0.726105
1210.5	1.92746
1210.67	-1.60159
1210.84	-0.190552
1211.02	2.67764
1211.19	2.51077
1211.36	5.3288
1211.53	-6.27155
1211.7	7.28079
1211.87	8.22708
1212.04	-2.9451
1212.22	1.4733
1212.39	1.87997
1212.56	-7.01459
1212.73	-2.22183
1212.9	-5.94473
1213.08	-2.70502
1213.25	5.90082
1213.42	-1.09579
1213.59	-4.55826
1213.76	1.81012
1213.93	-3.85175
1214.11	-1.60287
1214.28	-1.29831
1214.45	2.72983
1214.62	2.80188
1214.79	2.32425
1214.96	10.0439
1215.13	-6.23892
1215.31	0.438293
1215.48	-3.32922
1215.65	-2.28415
1215.82	-3.64005
1215.99	-0.374542
1216.16	-3.68475
1216.33	3.31635
1216.51	1.03397
1216.68	-3.64053
1216.85	1.0238
1217.02	-1.13998
1217.19	1.53253
1217.36	-1.27737
1217.54	-1.86398
1217.71	2.108
1217.88	3.3916
1218.05	2.31531
1218.22	0.411926
1218.39	0.997986
1218.56	2.61603
1218.74	-2.43192
1218.91	-8.22528
1219.08	4.12997
1219.25	5.47513
1219.42	5.59521
1219.59	7.2095
1219.76	-3.19708
1219.93	1.0896
1220.11	3.73804
1220.28	-1.17654
1220.45	1.99966
1220.62	7.81934
1220.79	3.00787
1220.96	1.31467
1221.13	-0.870667
1221.31	-2.66299
1221.48	-1.62329
1221.65	-3.76321
1221.82	-5.40363
1221.99	2.00302
1222.16	-0.906006
1222.33	2.711
1222.5	2.90503
1222.68	1.24966
1222.85	2.18823
1223.02	2.73978
1223.19	1.53766
1223.36	2.53046
1223.53	2.8302
1223.7	-3.13522
1223.87	-1.27011
1224.04	1.46979
1224.22	1.92947
1224.39	2.46503
1224.56	-1.83582
1224.73	5.42282
1224.9	1.87512
1225.07	6.23553
1225.24	0.31427
1225.41	-5.42764
1225.59	-4.59427
1225.76	-2.34537
1225.93	7.38745
1226.1	-3.60895
1226.27	7.97995
1226.44	-6.87326
1226.61	-1.25229
1226.78	-0.136841
1226.95	2.33755
1227.12	5.29233
1227.3	-3.69528
1227.47	0.706818
1227.64	3.76721
1227.81	-1.30365
1227.98	-5.10345
1228.15	-3.38742
1228.32	-3.10126
1228.49	0.317291
1228.66	1.94522
1228.84	-0.195007
1229.01	0.780212
1229.18	-0.814484
1229.35	9.4938
1229.52	2.89969
1229.69	-2.98077
1229.86	1.24814
1230.03	-3.96207
1230.2	-3.7261
1230.37	-4.84607
1230.54	4.15305
1230.71	3.52185
1230.89	2.59741
1231.06	3.11313
1231.23	-0.864319
1231.4	5.22992
1231.57	2.39429
1231.74	3.82739
1231.91	-0.479492
1232.08	-0.775665
1232.25	-4.58044
1232.42	-2.0415
1232.59	3.99835
1232.77	-0.548004
1232.94	-3.82962
1233.11	4.72571
1233.28	-0.163177
1233.45	-5.32104
1233.62	-7.99615
1233.79	5.16647
1233.96	-2.33984
1234.13	0.37207
1234.3	1.05951
1234.47	-1.31644
1234.64	-1.52118
1234.81	5.69681
1234.99	1.06519
1235.16	0.291779
1235.33	-2.98828
1235.5	4.21844
1235.67	-5.73517
1235.84	3.05878
1236.01	0.890594
1236.18	0.275604
1236.35	-0.654572
1236.52	0.22699
1236.69	-4.01425
1236.86	-0.135223
1237.03	3.27512
1237.2	4.72162
1237.37	-0.921326
1237.54	-1.17322
1237.72	-2.08826
1237.89	3.48834
1238.06	-3.31183
1238.23	1.57904
1238.4	4.77133
1238.57	2.78198
1238.74	0.51709
1238.91	-0.660919
1239.08	2.12704
1239.25	5.45407
1239.42	5.83698
1239.59	2.4613
1239.76	1.5791
1239.93	-2.89331
1240.1	-5.26337
1240.27	2.94611
1240.44	10.7032
1240.61	-1.35617
1240.79	0.48642
1240.96	0.341125
1241.13	-0.566223
1241.3	17.7898
1241.47	3.66855
1241.64	8.92661
1241.81	-0.877045
1241.98	9.86252
1242.15	4.2562
1242.32	6.81494
1242.49	2.36462
1242.66	5.28403
1242.83	11.4188
1243	-0.390015
1243.17	0.556091
1243.34	6.56372
1243.51	10.3268
1243.68	1.95438
1243.85	3.09872
1244.02	4.33585
1244.19	5.99435
1244.36	0.275848
1244.53	5.17117
1244.7	3.52438
1244.87	1.00638
1245.05	3.19632
1245.21	0.801453
1245.39	8.94379
1245.55	10.5106
1245.73	0.284546
1245.9	2.20413
1246.07	2.28833
1246.24	2.71924
1246.41	3.54559
1246.58	6.01929
1246.75	3.56274
1246.92	3.69034
1247.09	0.524506
1247.26	5.6319
1247.43	5.00458
1247.6	1.23431
1247.77	1.05902
1247.94	0.752716
1248.11	0.798615
1248.28	-0.0558472
1248.45	6.03085
1248.62	4.12982
1248.79	0.322418
1248.96	6.74252
1249.13	-0.768982
1249.3	-2.08704
1249.47	6.19479
1249.64	3.94702
1249.81	-0.0433655
1249.98	5.24985
1250.15	1.17386
1250.32	6.45206
1250.49	8.8125
1250.66	0.875122
1250.83	1.36005
1251	8.16223
1251.17	4.7139
1251.34	3.62155
1251.51	8.7424
1251.68	1.14496
1251.85	4.26624
1252.02	2.20612
1252.19	0.0731506
1252.36	2.11642
1252.53	3.66577
1252.7	4.26175
1252.87	0.128662
1253.04	-2.03345
1253.21	5.51932
1253.38	5.65079
1253.55	3.30811
1253.72	8.94406
1253.89	-1.64896
1254.06	6.97647
1254.23	1.89212
1254.4	8.15396
1254.57	8.95825
1254.74	4.00638
1254.91	8.55188
1255.08	7.97043
1255.25	-4.4187
1255.42	1.61166
1255.59	3.81815
1255.76	-1.33969
1255.93	3.11026
1256.1	0.483063
1256.27	7.22104
1256.44	3.66779
1256.61	3.30008
1256.78	1.71924
1256.95	13.9581
1257.12	9.32172
1257.29	0.395172
1257.46	6.4418
1257.63	2.18671
1257.8	3.49176
1257.97	6.38931
1258.13	11.4339
1258.31	13.2275
1258.47	0.747711
1258.64	1.94434
1258.81	10.7186
1258.98	11.755
1259.15	0.788269
1259.32	4.06497
1259.49	0.53952
1259.66	10.2603
1259.83	4.04721
1260	8.05853
1260.17	9.42798
1260.34	3.66678
1260.51	0.617035
1260.68	6.80347
1260.85	5.59662
1261.02	5.44965
1261.19	10.7474
1261.36	7.45917
1261.53	4.12964
1261.7	-0.491486
1261.87	11.463
1262.04	9.11069
1262.21	9.21909
1262.38	14.8803
1262.55	10.4987
1262.72	14.8744
1262.89	18.8333
1263.05	2.52228
1263.22	7.66409
1263.39	10.1624
1263.56	12.157
1263.73	25.6788
1263.9	19.3951
1264.07	23.0996
1264.24	20.2395
1264.41	27.3625
1264.58	23.9915
1264.75	22.1074
1264.92	17.2654
1265.09	14.362
1265.26	9.93515
1265.43	9.99799
1265.6	7.98718
1265.77	4.86475
1265.94	10.0723
1266.11	10.2355
1266.27	6.32385
1266.44	6.98981
1266.61	5.41257
1266.78	9.56232
1266.95	1.41327
1267.12	11.0958
1267.29	5.85223
1267.46	3.16663
1267.63	-0.638275
1267.8	1.6348
1267.97	4.46143
1268.14	0.373657
1268.31	-1.70654
1268.48	2.35028
1268.65	17.5756
1268.81	13.3318
1268.98	-1.76556
1269.15	0.986938
1269.32	2.88852
1269.49	11.0007
1269.66	8.87057
1269.83	5.11194
1270	5.01077
1270.17	7.77271
1270.34	1.68704
1270.51	8.82166
1270.68	-2.0043
1270.85	4.20319
1271.01	10.0485
1271.18	10.3034
1271.35	4.91614
1271.52	1.64362
1271.69	6.92783
1271.86	5.53052
1272.03	3.67963
1272.2	1.8024
1272.37	3.40771
1272.54	8.75806
1272.71	2.98041
1272.88	5.23282
1273.04	3.80432
1273.21	4.38141
1273.38	1.02972
1273.55	0.406555
1273.72	4.61105
1273.89	10.1232
1274.06	2.47305
1274.23	3.77206
1274.4	1.91232
1274.57	5.52341
1274.74	2.02853
1274.9	9.2818
1275.07	8.51434
1275.24	8.08273
1275.41	8.06329
1275.58	13.7982
1275.75	4.49521
1275.92	9.33011
1276.09	8.61539
1276.26	1.22849
1276.42	1.4473
1276.59	8.31335
1276.76	3.88364
1276.93	8.18011
1277.1	9.32971
1277.27	11.3602
1277.44	0.1008
1277.61	4.51645
1277.78	-1.28622
1277.95	8.67648
1278.11	5.29688
1278.28	0.0982056
1278.45	4.41617
1278.62	7.51355
1278.79	8.36218
1278.96	3.38724
1279.13	8.0271
1279.3	11.8896
1279.46	8.63351
1279.63	4.56732
1279.8	0.458405
1279.97	6.54498
1280.14	11.8949
1280.31	11.3153
1280.48	7.99405
1280.65	5.83713
1280.82	2.49573
1280.98	12.2005
1281.15	11.6391
1281.32	14.0553
1281.49	17.1041
1281.66	21.6445
1281.83	15.085
1282	19.3454
1282.17	20.8741
1282.33	40.5623
1282.5	32.7126
1282.67	40.2942
1282.84	59.7751
1283.01	63.4025
1283.18	57.4821
1283.35	90.3187
1283.52	101.778
1283.68	173.535
1283.85	200.486
1284.02	248.5
1284.19	320.37
1284.36	319.866
1284.53	327.304
1284.7	248.786
1284.86	211.665
1285.03	126.393
1285.2	95.475
1285.37	70.663
1285.54	47.3495
1285.71	27.1682
1285.88	21.1343
1286.04	28.5044
1286.21	26.2996
1286.38	12.78
1286.55	12.9364
1286.72	7.24756
1286.89	8.51566
1287.06	18.5516
1287.22	5.14145
1287.39	9.76785
1287.56	1.7933
1287.73	10.2304
1287.9	9.59448
1288.07	0.485138
1288.24	7.35941
1288.4	3.797
1288.57	12.7993
1288.74	8.80737
1288.91	1.28128
1289.08	3.85944
1289.25	2.15881
1289.41	0.417542
1289.58	-1.90866
1289.75	0.946472
1289.92	3.9595
1290.09	2.09491
1290.26	7.31241
1290.42	-0.939972
1290.59	2.18866
1290.76	1.51913
1290.93	-2.2431
1291.1	1.47208
1291.27	4.28217
1291.44	2.24146
1291.6	3.45706
1291.77	0.070343
1291.94	6.45242
1292.11	3.81427
1292.28	5.71024
1292.44	6.03531
1292.61	-0.735443
1292.78	-1.19724
1292.95	1.03607
1293.12	3.46118
1293.29	-3.74164
1293.45	-0.627014
1293.62	3.71075
1293.79	-1.40961
1293.96	4.23215
1294.13	-1.4071
1294.29	-3.16382
1294.46	3.51801
1294.63	0.385345
1294.8	4.36111
1294.97	-1.23312
1295.14	0.659943
1295.3	-0.995819
1295.47	-2.3768
1295.64	-0.357788
1295.81	0.315643
1295.98	3.91284
1296.14	-3.20294
1296.31	0.535828
1296.48	-1.1817
1296.65	1.40988
1296.82	0.863983
1296.99	-0.760986
1297.15	4.11884
1297.32	-2.29144
1297.49	2.32047
1297.66	2.10385
1297.83	-3.83795
1297.99	-3.64911
1298.16	-0.0778198
1298.33	2.06912
1298.5	3.29941
1298.67	0.718323
1298.83	-3.41965
1299	0.432587
1299.17	4.8291
1299.34	-3.0748
1299.51	-1.91058
1299.67	-1.2189
1299.84	0.245728
1300.01	-4.36484
1300.18	5.52972
1300.35	2.16501
1300.51	1.78702
1300.68	5.63544
1300.85	3.07376
1301.02	-6.63934
1301.19	2.51123
1301.35	3.07217
1301.52	2.35635
1301.69	1.34439
1301.86	-4.89752
1302.03	-3.61514
1302.19	-1.89279
1302.36	1.16104
1302.53	-6.586
1302.7	11.9752
1302.86	0.348633
1303.03	0.175323
1303.2	3.20764
1303.37	-0.703552
1303.54	-1.40201
1303.7	-3.98236
1303.87	-2.83292
1304.04	-0.246765
1304.21	-0.101135
1304.37	2.67542
1304.54	0.439636
1304.71	0.225555
1304.88	-2.22064
1305.05	1.8483
1305.21	1.45663
1305.38	-0.421753
1305.55	-1.65625
1305.72	-2.0058
1305.88	0.910004
1306.05	2.2041
1306.22	-5.76196
1306.39	-5.03195
1306.55	-2.08963
1306.72	3.24435
1306.89	-1.8837
1307.06	4.98526
1307.23	0.156158
1307.39	-0.874664
1307.56	-0.0566711
1307.73	-0.0268555
1307.9	5.63504
1308.06	11.3927
1308.23	4.03333
1308.4	-5.38446
1308.57	-1.5094
1308.73	-1.18967
1308.9	-0.360413
1309.07	8.05316
1309.24	-6.89871
1309.41	-0.776917
1309.57	2.46387
1309.74	-2.09778
1309.91	0.357422
1310.07	-2.8967
1310.24	2.15536
1310.41	2.05252
1310.58	2.3815
1310.75	2.71765
1310.91	-3.34024
1311.08	7.10687
1311.25	-3.65295
1311.42	2.56635
1311.58	-2.21841
1311.75	-0.17038
1311.92	-9.14496
1312.08	2.60983
1312.25	1.58154
1312.42	2.66183
1312.59	0.138458
1312.75	-3.62817
1312.92	1.64557
1313.09	-4.54059
1313.26	3.23788
1313.42	-2.48926
1313.59	-0.751099
1313.76	1.17801
1313.93	2.62381
1314.09	0.0437622
1314.26	-1.09308
1314.43	0.608063
1314.6	-6.25549
1314.76	0.667175
1314.93	-0.229126
1315.1	-0.798248
1315.27	-2.50903
1315.43	-3.68732
1315.6	-0.801392
1315.77	-2.38297
1315.93	0.239655
1316.1	1.80353
1316.27	7.5119
1316.44	5.58636
1316.6	-3.08011
1316.77	0.00256348
1316.94	0.445648
1317.1	-3.94043
1317.27	8.03397
1317.44	2.73657
1317.61	2.56177
1317.77	-6.3815
1317.94	4.68198
1318.11	4.5014
1318.28	4.52591
1318.44	-5.40549
1318.61	1.15485
1318.78	3.27667
1318.94	-0.621033
1319.11	2.46692
1319.28	0.626312
1319.45	0.260254
1319.61	-1.28613
1319.78	-4.01428
1319.95	2.93164
1320.11	1.88031
1320.28	-0.802246
1320.45	3.68365
1320.62	3.01773
1320.78	3.12137
1320.95	-0.136719
1321.12	0.589417
1321.28	5.53073
1321.45	0.301331
1321.62	-1.56271
1321.78	3.0625
1321.95	-4.26086
1322.12	3.19553
1322.29	3.34198
1322.45	3.4238
1322.62	6.53253
1322.79	1.60187
1322.95	-2.34079
1323.12	2.66248
1323.29	4.49231
1323.45	-3.69357
1323.62	9.4277
1323.79	8.91745
1323.96	5.31345
1324.12	1.91129
1324.29	5.01462
1324.46	5.21014
1324.62	5.01895
1324.79	2.30707
1324.96	1.88882
1325.12	-0.358917
1325.29	0.433289
1325.46	-3.74078
1325.62	5.4064
1325.79	0.679077
1325.96	-5.01071
1326.13	7.5661
1326.29	0.723511
1326.46	6.79965
1326.63	-0.324341
1326.79	5.99078
1326.96	5.77414
1327.13	-0.157013
1327.29	1.27838
1327.46	3.66672
1327.63	9.99213
1327.79	3.29089
1327.96	2.57584
1328.13	1.95941
1328.29	8.03391
1328.46	4.84482
1328.63	6.4313
1328.79	4.24002
1328.96	5.23566
1329.13	2.44431
1329.29	2.9877
1329.46	4.51605
1329.63	4.06186
1329.79	5.71237
1329.96	0.0926514
1330.13	2.54807
1330.3	0.045166
1330.46	1.3078
1330.63	7.66461
1330.8	0.0506287
1330.96	7.74612
1331.13	1.73871
1331.29	-4.91782
1331.46	4.569
1331.63	2.53024
1331.79	6.24661
1331.96	6.35434
1332.13	3.81467
1332.29	7.88666
1332.46	4.17468
1332.63	4.55554
1332.79	5.01868
1332.96	5.50742
1333.13	0.0796814
1333.29	3.93558
1333.46	3.0029
1333.63	7.38089
1333.79	4.74106
1333.96	1.82001
1334.13	10.7026
1334.29	7.80804
1334.46	6.14429
1334.63	1.28497
1334.79	7.65512
1334.96	3.50784
1335.13	0.671204
1335.29	5.72559
1335.46	8.09293
1335.62	8.67853
1335.79	8.06796
1335.96	9.16367
1336.12	12.0753
1336.29	8.96744
1336.46	8.73166
1336.62	8.80603
1336.79	2.13531
1336.96	5.99875
1337.12	6.19498
1337.29	6.33377
1337.46	8.22421
1337.62	2.82797
1337.79	4.05957
1337.95	5.69095
1338.12	1.31061
1338.29	6.89468
1338.45	3.22678
1338.62	4.49393
1338.79	10.6635
1338.95	2.51031
1339.12	11.7247
1339.29	6.00363
1339.45	0.95575
1339.62	15.9554
1339.78	1.6124
1339.95	8.03784
1340.12	6.13623
1340.28	18.1031
1340.45	8.67191
1340.62	7.27167
1340.78	11.172
1340.95	1.91745
1341.11	9.62186
1341.28	8.93332
1341.45	2.44748
1341.61	-3.01538
1341.78	6.41226
1341.94	2.57242
1342.11	11.1487
1342.28	1.04504
1342.44	0.995331
1342.61	6.84488
1342.78	15.1118
1342.94	3.95462
1343.11	3.96008
1343.27	11.3179
1343.44	4.20416
1343.61	4.08987
1343.77	3.99054
1343.94	5.08334
1344.1	6.31256
1344.27	3.37878
1344.44	5.36652
1344.6	5.4075
1344.77	8.74423
1344.93	-1.69922
1345.1	6.5463
1345.27	6.94461
1345.43	5.91266
1345.6	6.03659
1345.77	2.16052
1345.93	9.96777
1346.1	8.73956
1346.26	2.90198
1346.43	3.57391
1346.6	12.2733
1346.76	6.3754
1346.93	3.28305
1347.09	9.37479
1347.26	6.24313
1347.42	7.77255
1347.59	6.46024
1347.76	14.7082
1347.92	9.82022
1348.09	4.14758
1348.25	7.09048
1348.42	6.03793
1348.59	5.0816
1348.75	7.68158
1348.92	3.45599
1349.08	8.17499
1349.25	7.37082
1349.42	4.69983
1349.58	5.86755
1349.75	10.4232
1349.91	10.1582
1350.08	2.59238
1350.25	11.2426
1350.41	4.55118
1350.58	5.98557
1350.74	9.59055
1350.91	5.38763
1351.07	1.66263
1351.24	6.22406
1351.41	4.00345
1351.57	11.1159
1351.74	13.9987
1351.9	13.9249
1352.07	10.2381
1352.23	9.70807
1352.4	2.64957
1352.57	-0.334442
1352.73	3.96967
1352.9	14.0706
1353.06	4.14926
1353.23	10.1779
1353.39	3.52261
1353.56	4.23233
1353.73	5.75653
1353.89	8.36795
1354.06	9.27097
1354.22	2.2294
1354.39	1.68024
1354.55	3.69046
1354.72	5.83084
1354.88	6.31967
1355.05	3.42957
1355.22	9.46359
1355.38	8.97186
1355.55	-0.242096
1355.71	8.51352
1355.88	7.56174
1356.04	9.64362
1356.21	6.14059
1356.38	7.31055
1356.54	3.73495
1356.71	7.52243
1356.87	9.75748
1357.04	13.4948
1357.2	8.95758
1357.37	1.32123
1357.53	3.51465
1357.7	11.9325
1357.87	8.22632
1358.03	8.95761
1358.2	8.02713
1358.36	2.14896
1358.53	7.89093
1358.69	7.77335
1358.86	-0.0457153
1359.02	13.3654
1359.19	4.78577
1359.35	2.03702
1359.52	11.4674
1359.69	6.34921
1359.85	12.6311
1360.02	5.54285
1360.18	4.24243
1360.35	7.25928
1360.51	11.6788
1360.68	9.11575
1360.84	6.65424
1361.01	10.1044
1361.17	2.11536
1361.34	9.60178
1361.5	8.11389
1361.67	6.99612
1361.84	4.41647
1362	9.12021
1362.17	5.30444
1362.33	4.28732
1362.5	9.83801
1362.66	2.4559
1362.83	6.93478
1362.99	4.00357
1363.16	5.17133
1363.32	2.50299
1363.49	-0.111237
1363.65	4.62863
1363.82	9.45782
1363.98	12.3347
1364.15	9.12085
1364.31	6.52505
1364.48	3.505
1364.64	2.9176
1364.81	11.4055
1364.98	9.3649
1365.14	1.43665
1365.31	8.70584
1365.47	7.31021
1365.64	4.78992
1365.8	13.0159
1365.97	6.64429
1366.13	10.8723
1366.3	14.691
1366.46	12.9208
1366.63	8.3381
1366.79	0.914368
1366.96	5.10031
1367.12	4.5495
1367.29	6.97046
1367.45	12.5897
1367.62	11.7327
1367.78	5.81519
1367.95	12.0938
1368.11	7.29565
1368.28	14.1275
1368.44	12.4402
1368.61	7.38086
1368.77	5.35611
1368.94	10.8971
1369.1	7.04584
1369.27	16.2513
1369.43	14.4827
1369.6	29.6345
1369.76	17.9229
1369.93	13.6276
1370.09	7.11438
1370.26	7.30252
1370.42	4.81854
1370.59	16.568
1370.75	12.209
1370.92	5.44049
1371.08	2.19528
1371.25	8.21838
1371.41	9.84195
1371.58	8.0498
1371.74	9.89685
1371.91	2.6011
1372.07	5.96628
1372.24	11.8046
1372.4	8.78748
1372.57	4.71872
1372.73	7.81995
1372.9	4.79852
1373.06	11.508
1373.23	7.48535
1373.39	6.83228
1373.56	3.70642
1373.72	10.0161
1373.89	14.1577
1374.05	1.18967
1374.22	8.4971
1374.38	11.1206
1374.54	11.1404
1374.71	1.66623
1374.87	7.52777
1375.04	10.1845
1375.2	5.06186
1375.37	14.5768
1375.53	5.67273
1375.7	12.6512
1375.86	10.7673
1376.03	5.00507
1376.19	10.5558
1376.36	7.43707
1376.52	12.0885
1376.69	4.04932
1376.85	5.90933
1377.02	7.16351
1377.18	0.66983
1377.34	6.69177
1377.51	13.5835
1377.67	15.8659
1377.84	6.18628
1378	6.69797
1378.17	4.63055
1378.33	2.29459
1378.5	10.168
1378.66	8.85339
1378.83	5.86639
1378.99	7.25314
1379.16	10.521
1379.32	14.0419
1379.48	13.018
1379.65	10.5358
1379.81	14.3607
1379.98	4.41953
1380.14	6.66571
1380.31	6.43716
1380.47	14.2991
1380.64	8.24371
1380.8	11.8406
1380.97	14.4229
1381.13	14.4204
1381.3	7.47971
1381.46	6.22903
1381.62	16.2744
1381.79	13.7687
1381.95	13.9552
1382.12	15.2688
1382.28	6.13956
1382.45	10.1144
1382.61	13.5957
1382.78	10.6265
1382.94	10.3368
1383.1	13.8958
1383.27	26.4286
1383.43	14.4942
1383.6	13.3673
1383.76	12.0793
1383.93	7.09848
1384.09	15.1321
1384.26	20.4417
1384.42	11.7346
1384.58	16.8964
1384.75	17.2742
1384.91	22.839
1385.08	17.3507
1385.24	24.1689
1385.4	29.4679
1385.57	23.0168
1385.73	29.7542
1385.9	44.9269
1386.06	42.9444
1386.23	66.0539
1386.39	78.9106
1386.56	83.1561
1386.72	139.004
1386.88	171.895
1387.05	270.348
1387.21	390.112
1387.38	593.21
1387.54	677.107
1387.7	684.75
1387.87	549.965
1388.03	342.024
1388.2	190.554
1388.36	127.716
1388.53	69.1383
1388.69	57.8745
1388.85	47.3908
1389.02	40.8435
1389.18	24.223
1389.35	30.7569
1389.51	25.6706
1389.68	20.6948
1389.84	21.9865
1390	27.5432
1390.17	17.9065
1390.33	7.14545
1390.5	15.6186
1390.66	6.37274
1390.82	7.33902
1390.99	18.0235
1391.15	13.1542
1391.32	13.2444
1391.48	16.7338
1391.64	15.4838
1391.81	9.14114
1391.97	8.21997
1392.14	3.19415
1392.3	10.4041
1392.46	7.99533
1392.63	6.89072
1392.79	16.5184
1392.96	8.24124
1393.12	9.87024
1393.28	6.57269
1393.45	17.2864
1393.61	7.1954
1393.78	4.43683
1393.94	8.51907
1394.1	6.54303
1394.27	4.7883
1394.43	6.4054
1394.6	10.5301
1394.76	1.78671
1394.92	3.04254
1395.09	4.29288
1395.25	0.64917
1395.42	4.68011
1395.58	7.73727
1395.74	6.75565
1395.91	5.75189
1396.07	8.10767
1396.24	-0.860077
1396.4	8.07166
1396.56	7.40271
1396.73	3.38098
1396.89	3.50589
1397.05	4.68524
1397.22	11.2892
1397.38	3.05884
1397.55	6.10568
1397.71	0.536469
1397.87	7.5213
1398.04	4.21893
1398.2	8.7981
1398.36	4.44904
1398.53	-4.84918
1398.69	6.7626
1398.86	5.56583
1399.02	8.56015
1399.18	3.44376
1399.35	3.29062
1399.51	8.83096
1399.67	0.870392
1399.84	-2.40479
1400	4.78244
1400.17	2.56332
1400.33	2.74945
1400.49	2.84567
1400.66	6.35278
1400.82	6.57339
1400.98	0.010376
1401.15	3.06689
1401.31	-0.132843
1401.47	9.16669
1401.64	3.01767
1401.8	13.696
1401.97	4.43259
1402.13	-0.749603
1402.29	3.28018
1402.46	9.6001
1402.62	5.39764
1402.78	4.70972
1402.95	1.5239
1403.11	7.29846
1403.27	1.51526
1403.44	3.48514
1403.6	5.17078
1403.76	10.3458
1403.93	6.01959
1404.09	3.81686
1404.26	6.95792
1404.42	3.73395
1404.58	9.03687
1404.75	3.87234
1404.91	3.54013
1405.07	5.45697
1405.24	4.60873
1405.4	5.70819
1405.56	8.8067
1405.73	10.1114
1405.89	9.12003
1406.05	10.8716
1406.22	1.52539
1406.38	0.92276
1406.54	13.5061
1406.71	11.0408
1406.87	8.90399
1407.03	8.83347
1407.2	6.60495
1407.36	12.5315
1407.52	3.30499
1407.69	18.3765
1407.85	12.1048
1408.01	14.0744
1408.18	23.4927
1408.34	19.1338
1408.5	34.5308
1408.67	38.8107
1408.83	41.3444
1408.99	35.6187
1409.16	34.4098
1409.32	36.0379
1409.48	34.0072
1409.65	10.5338
1409.81	18.1453
1409.97	21.9612
1410.14	9.76208
1410.3	16.9179
1410.46	5.63983
1410.63	17.2205
1410.79	9.17432
1410.95	4.92126
1411.12	5.92026
1411.28	3.76593
1411.44	0.528961
1411.61	1.98883
1411.77	4.26639
1411.93	5.67389
1412.1	5.65979
1412.26	14.8595
1412.42	9.66138
1412.58	5.66202
1412.75	7.92584
1412.91	2.07767
1413.08	4.57272
1413.24	5.27948
1413.4	1.43033
1413.56	5.82748
1413.73	0.857239
1413.89	7.17627
1414.05	6.34909
1414.22	1.89996
1414.38	7.65619
1414.54	1.46695
1414.71	2.54651
1414.87	1.55878
1415.03	5.15613
1415.19	2.61496
1415.36	2.68372
1415.52	8.13193
1415.68	5.94031
1415.85	5.59473
1416.01	0.428223
1416.17	11.4609
1416.34	-0.667999
1416.5	5.9718
1416.66	-0.0603333
1416.83	8.82809
1416.99	1.34372
1417.15	3.02054
1417.31	4.31546
1417.48	10.1497
1417.64	2.15857
1417.8	10.853
1417.97	2.31879
1418.13	15.3134
1418.29	13.2508
1418.46	6.63156
1418.62	1.63168
1418.78	6.12659
1418.94	0.526947
1419.11	6.07257
1419.27	0.864563
1419.43	8.50647
1419.59	7.1348
1419.76	6.33759
1419.92	-0.131775
1420.08	5.09589
1420.25	2.92502
1420.41	4.68134
1420.57	1.52444
1420.73	0.957977
1420.9	6.77524
1421.06	10.5891
1421.22	-1.88351
1421.39	2.01315
1421.55	2.12946
1421.71	8.07529
1421.87	9.21021
1422.04	4.72876
1422.2	15.2951
1422.36	2.91077
1422.52	-3.02441
1422.69	0.558777
1422.85	-1.21753
1423.01	5.43863
1423.18	4.02954
1423.34	4.71881
1423.5	2.90283
1423.66	0.977142
1423.83	6.08746
1423.99	3.71393
1424.15	2.035
1424.31	6.91037
1424.48	5.64011
1424.64	4.84918
1424.8	10.3249
1424.97	-1.53314
1425.13	4.91949
1425.29	6.84286
1425.45	-0.607727
1425.61	2.16785
1425.78	3.5466
1425.94	8.80011
1426.1	1.80429
1426.27	4.84268
1426.43	0.445801
1426.59	4.7233
1426.75	4.68402
1426.92	5.88031
1427.08	3.89133
1427.24	7.19058
1427.4	1.16516
1427.57	7.30222
1427.73	8.33246
1427.89	1.00943
1428.05	2.78818
1428.22	0.385101
1428.38	5.11426
1428.54	6.08975
1428.7	5.16873
1428.87	-0.889191
1429.03	3.31345
1429.19	9.12152
1429.35	3.38031
1429.52	2.50598
1429.68	4.19019
1429.84	4.74478
1430	3.54535
1430.17	2.73346
1430.33	0.523651
1430.49	4.37027
1430.65	2.48325
1430.82	7.83865
1430.98	4.93616
1431.14	17.8196
1431.3	5.08124
1431.46	-1.25217
1431.63	0.6604
1431.79	4.79074
1431.95	0.00750732
1432.11	1.90115
1432.28	1.89841
1432.44	3.70972
1432.6	0.894623
1432.76	1.88156
1432.93	5.37231
1433.09	5.93991
1433.25	0.597565
1433.41	2.93625
1433.57	7.08057
1433.74	10.4561
1433.9	-0.505524
1434.06	-1.82388
1434.22	3.64551
1434.38	-5.34921
1434.55	-2.42072
1434.71	0.769165
1434.87	1.45374
1435.03	-2.80981
1435.2	2.75546
1435.36	5.99707
1435.52	3.41125
1435.68	0.663666
1435.85	4.20203
1436.01	3.13181
1436.17	0.612061
1436.33	4.74033
1436.49	4.49319
1436.66	4.54803
1436.82	6.6282
1436.98	5.21594
1437.14	3.10733
1437.3	3.47858
1437.47	5.99518
1437.63	9.07166
1437.79	5.31104
1437.95	-2.60864
1438.11	9.39786
1438.28	2.90933
1438.44	2.98392
1438.6	0.436432
1438.76	1.56122
1438.92	-0.479492
1439.09	8.55713
1439.25	4.08276
1439.41	0.159332
1439.57	0.941589
1439.73	5.29681
1439.9	0.738281
1440.06	2.67288
1440.22	2.76108
1440.38	7.42371
1440.54	6.00659
1440.71	4.37036
1440.87	4.68219
1441.03	2.59607
1441.19	2.82724
1441.35	3.93042
1441.52	7.48126
1441.68	4.7684
1441.84	0.0680542
1442	7.10303
1442.16	3.31424
1442.33	7.57925
1442.49	1.53632
1442.65	7.82666
1442.81	1.51685
1442.97	5.44931
1443.14	2.6387
1443.3	6.65717
1443.46	5.24866
1443.62	5.16718
1443.78	9.98788
1443.94	5.5321
1444.11	1.33072
1444.27	5.72696
1444.43	4.83578
1444.59	-1.25607
1444.75	3.39374
1444.91	4.79861
1445.08	1.61926
1445.24	8.95093
1445.4	8.52618
1445.56	8.98007
1445.72	-2.38022
1445.88	-0.179443
1446.05	3.29211
1446.21	5.62122
1446.37	4.9552
1446.53	7.94171
1446.69	2.78943
1446.85	4.99918
1447.02	-1.36041
1447.18	4.34671
1447.34	2.71848
1447.5	2.98547
1447.66	9.5618
1447.82	2.02045
1447.99	7.94092
1448.15	2.46014
1448.31	-0.60437
1448.47	2.60904
1448.63	4.05905
1448.79	4.22748
1448.96	13.618
1449.12	5.1633
1449.28	5.47272
1449.44	8.91113
1449.6	2.21237
1449.76	4.53748
1449.93	7.62845
1450.09	0.740265
1450.25	3.30923
1450.41	5.01135
1450.57	5.16431
1450.73	2.80289
1450.9	6.18481
1451.06	3.60031
1451.22	1.45309
1451.38	7.91556
1451.54	5.27716
1451.7	1.02106
1451.86	9.25211
1452.03	2.66473
1452.19	5.25278
1452.35	9.72665
1452.51	2.79813
1452.67	-0.232574
1452.83	-0.545074
1452.99	3.04648
1453.16	9.37103
1453.32	5.95297
1453.48	-1.22278
1453.64	12.3579
1453.8	4.4238
1453.96	2.15063
1454.12	8.33252
1454.28	8.99622
1454.45	7.77597
1454.61	1.46353
1454.77	4.67038
1454.93	3.32175
1455.09	7.91522
1455.25	0.941711
1455.41	1.84164
1455.58	4.66873
1455.74	5.1857
1455.9	4.38748
1456.06	2.09448
1456.22	2.62778
1456.38	4.77951
1456.54	3.47607
1456.7	4.53528
1456.86	5.39954
1457.03	8.06891
1457.19	5.02936
1457.35	3.09558
1457.51	4.16373
1457.67	3.58188
1457.83	3.46796
1457.99	4.46906
1458.15	1.98224
1458.32	-0.75
1458.48	-0.784607
1458.64	2.37009
1458.8	6.20755
1458.96	3.26544
1459.12	2.38959
1459.28	4.66083
1459.44	4.67792
1459.61	3.32486
1459.77	5.34937
1459.93	4.09525
1460.09	2.01404
1460.25	1.58121
1460.41	3.38336
1460.57	6.58685
1460.73	4.0441
1460.9	2.23065
1461.06	2.95648
1461.22	6.21939
1461.38	2.50085
1461.54	2.62427
1461.7	7.27139
1461.86	1.31015
1462.02	5.59055
1462.18	1.82477
1462.34	4.19226
1462.5	3.06906
1462.67	1.2088
1462.83	1.87924
1462.99	1.68542
1463.15	2.33893
1463.31	2.28534
1463.47	3.75403
1463.63	1.2677
1463.79	3.86111
1463.95	4.37512
1464.11	3.02249
1464.28	3.01791
1464.44	4.2196
1464.6	1.78171
1464.76	3.75085
1464.92	3.27631
1465.08	1.97806
1465.24	3.42694
1465.4	2.00534
1465.56	2.67371
1465.72	0.914825
1465.88	-1.55597
1466.04	1.38528
1466.21	1.89694
1466.37	2.18021
1466.53	4.241
1466.69	7.55444
1466.85	5.97858
1467.01	3.32849
1467.17	-1.45676
1467.27	-7.55051
1467.43	-5.27823
1467.59	3.94467
1467.76	4.86285
1467.92	4.93686
1468.08	-4.86584
1468.25	-0.0430908
1468.41	6.2612
1468.57	0.90152
1468.74	4.95566
1468.9	10.9828
1469.07	2.82486
1469.23	-2.8653
1469.39	2.62164
1469.56	2.26657
1469.72	4.81305
1469.88	1.97409
1470.04	5.96625
1470.21	-0.458252
1470.37	0.703583
1470.53	3.24829
1470.7	2.01834
1470.86	-3.65933
1471.02	1.62955
1471.19	1.89737
1471.35	3.81482
1471.51	-1.29718
1471.68	-2.52374
1471.84	2.81226
1472	-4.03723
1472.17	7.56247
1472.33	-1.29071
1472.49	4.37524
1472.66	1.70712
1472.82	9.11423
1472.98	-3.90793
1473.15	5.60626
1473.31	6.73718
1473.47	2.42508
1473.64	3.78217
1473.8	-2.6037
1473.96	1.32767
1474.12	1.66528
1474.29	3.3522
1474.45	5.06403
1474.61	0.371338
1474.78	2.5069
1474.94	-1.45786
1475.1	0.161743
1475.27	2.0517
1475.43	0.596039
1475.59	0.238586
1475.76	1.02457
1475.92	6.51999
1476.08	1.33548
1476.25	6.11517
1476.41	3.15057
1476.57	2.86377
1476.73	1.28436
1476.9	-2.93243
1477.06	2.44034
1477.22	5.13687
1477.39	-2.48322
1477.55	-1.26746
1477.71	5.29144
1477.88	-0.934509
1478.04	3.12451
1478.2	1.14825
1478.36	17.9016
1478.53	7.25192
1478.69	2.14514
1478.85	0.235687
1479.02	3.56082
1479.18	-1.103
1479.34	-0.272675
1479.51	1.08319
1479.67	2.51871
1479.83	0.784668
1479.99	0.706787
1480.16	4.90549
1480.32	-3.33585
1480.48	8.07956
1480.65	-1.72968
1480.81	-1.81253
1480.97	0.0358887
1481.13	2.31375
1481.3	1.21228
1481.46	-3.47983
1481.62	3.80612
1481.79	1.91101
1481.95	-1.25381
1482.11	-1.53961
1482.27	8.74759
1482.44	0.000274658
1482.6	4.54776
1482.76	-0.423737
1482.92	0.342529
1483.09	4.27969
1483.25	-2.3392
1483.41	2.52524
1483.58	0.679016
1483.74	-0.561493
1483.9	-4.33392
1484.06	-0.07901
1484.23	2.34406
1484.39	2.85806
1484.55	-1.17578
1484.72	1.82397
1484.88	-0.159241
1485.04	-1.68924
1485.2	7.15585
1485.37	2.38104
1485.53	-6.33301
1485.69	-0.559326
1485.85	7.1192
1486.02	0.552673
1486.18	-1.88739
1486.34	1.25748
1486.5	-2.92834
1486.67	0.838837
1486.83	-2.87863
1486.99	2.50531
1487.15	0.508087
1487.32	4.77267
1487.48	3.1337
1487.64	-6.1058
1487.81	3.46405
1487.97	-4.05209
1488.13	-1.13223
1488.29	-2.2067
1488.46	-0.238586
1488.62	-3.31738
1488.78	-6.00247
1488.94	1.86835
1489.1	2.43958
1489.27	-1.15253
1489.43	1.51062
1489.59	-0.255829
1489.76	-3.19955
1489.92	-2.88132
1490.08	2.77734
1490.24	1.95648
1490.41	-0.508484
1490.57	-2.79077
1490.73	0.631805
1490.89	0.0465088
1491.06	0.592224
1491.22	7.76135
1491.38	-3.76593
1491.54	2.75168
1491.7	1.93195
1491.87	0.79483
1492.03	1.57605
1492.19	3.11502
1492.35	0.0866699
1492.52	2.94565
1492.68	4.69427
1492.84	-0.340912
1493	1.38351
1493.17	-3.95898
1493.33	-3.7562
1493.49	2.86139
1493.65	0.727509
1493.82	1.46332
1493.98	1.73193
1494.14	1.26041
1494.3	-0.620361
1494.46	0.953705
1494.63	4.76535
1494.79	0.131287
1494.95	-2.04672
1495.11	-4.1694
1495.28	-0.150269
1495.44	0.540375
1495.6	-3.16815
1495.76	3.86099
1495.92	-5.83636
1496.09	0.584717
1496.25	1.41583
1496.41	4.19757
1496.57	0.315308
1496.74	-2.75369
1496.9	-3.64337
1497.06	-4.19354
1497.22	5.633
1497.38	-2.5921
1497.55	0.258331
1497.71	-6.61984
1497.87	-3.30804
1498.03	-4.21527
1498.2	4.27884
1498.36	5.34918
1498.52	1.09937
1498.68	-2.08453
1498.84	3.3909
1499.01	-1.64386
1499.17	1.34311
1499.33	0.514709
1499.49	-0.233459
1499.65	2.74915
1499.82	1.29126
1499.98	0.11322
1500.14	-3.09802
1500.3	0.328613
1500.46	1.39993
1500.63	0.31366
1500.79	0.2771
1500.95	4.09427
1501.11	2.0209
1501.27	3.68091
1501.44	0.362915
1501.6	1.04306
1501.76	0.281647
1501.92	-1.71997
1502.08	-3.04944
1502.25	4.73996
1502.41	0.45401
1502.57	-1.08786
1502.73	-3.10657
1502.89	-1.47086
1503.06	-1.8801
1503.22	-0.970123
1503.38	-4.03973
1503.54	-2.99042
1503.7	0.833679
1503.87	1.60666
1504.03	2.84634
1504.19	4.11771
1504.35	0.299896
1504.51	0.164764
1504.68	-0.210632
1504.84	3.42068
1505	1.94101
1505.16	0.669647
1505.32	-3.62427
1505.48	3.93082
1505.65	-0.793365
1505.81	1.73242
1505.97	13.2182
1506.13	6.92725
1506.29	3.56201
1506.46	3.87418
1506.62	2.34393
1506.78	-1.39313
1506.94	-3.38068
1507.1	-0.0545959
1507.26	4.22711
1507.43	5.59125
1507.59	-0.12146
1507.75	2.5383
1507.91	-1.03238
1508.07	4.63904
1508.23	3.13748
1508.4	1.01245
1508.56	0.942505
1508.72	-0.407379
1508.88	4.35748
1509.04	-0.154846
1509.2	-2.40747
1509.37	0.288422
1509.53	2.14316
1509.69	3.28305
1509.85	0.501343
1510.01	0.818512
1510.17	-0.0848083
1510.34	2.02206
1510.5	7.52924
1510.66	3.46027
1510.82	4.34106
1510.98	4.32867
1511.14	-1.80289
1511.31	-5.12094
1511.47	-2.20728
1511.63	3.63251
1511.79	3.51373
1511.95	1.6839
1512.11	0.308167
1512.27	-1.34818
1512.44	-0.175659
1512.6	3.74442
1512.76	-3.71548
1512.92	0.18634
1513.08	1.91107
1513.24	0.60788
1513.4	5.14484
1513.57	5.68027
1513.73	-1.82028
1513.89	-2.68259
1514.05	6.94891
1514.21	-3.98022
1514.37	0.744537
1514.54	5.18353
1514.7	-2.24429
1514.86	7.39093
1515.02	-4.37772
1515.18	5.45541
1515.34	-1.82919
1515.5	-2.6795
1515.67	1.28842
1515.83	7.15823
1515.99	-0.307068
1516.15	3.11276
1516.31	2.57068
1516.47	-2.99353
1516.63	-1.29358
1516.8	1.34793
1516.96	-1.66751
1517.12	-1.68396
1517.28	3.11679
1517.44	-1.61426
1517.6	4.92636
1517.76	1.18567
1517.92	1.7822
1518.09	-1.27707
1518.25	4.21722
1518.41	3.10309
1518.57	0.959534
1518.73	0.95694
1518.89	5.31216
1519.05	1.62912
1519.21	1.97937
1519.38	3.04913
1519.54	0.93335
1519.7	4.34073
1519.86	3.53687
1520.02	5.647
1520.18	1.40967
1520.34	11.3024
1520.5	5.24954
1520.67	-1.23129
1520.83	-2.14142
1520.99	8.04413
1521.15	3.53989
1521.31	1.67694
1521.47	0.0410156
1521.63	-2.71817
1521.79	9.66751
1521.95	-1.88266
1522.12	3.99136
1522.28	1.03766
1522.44	-3.74725
1522.6	-0.845917
1522.76	0.387085
1522.92	4.49127
1523.08	-0.527649
1523.24	-1.88394
1523.4	2.75827
1523.57	2.89929
1523.73	3.65701
1523.89	1.88812
1524.05	8.42181
1524.21	8.18951
1524.37	-1.33395
1524.53	3.98444
1524.69	8.37015
1524.85	-0.0691833
1525.02	2.79675
1525.18	0.888306
1525.34	6.53983
1525.5	6.19205
1525.66	4.09991
1525.82	3.30893
1525.98	-1.36093
1526.14	-0.632324
1526.3	5.01373
1526.46	10.7375
1526.63	1.90491
1526.79	4.3613
1526.95	5.81134
1527.11	6.5177
1527.27	2.96216
1527.43	4.79907
1527.59	-1.75882
1527.75	5.03696
1527.91	1.09573
1528.07	3.41873
1528.23	5.5878
1528.4	4.5163
1528.56	5.6969
1528.72	-1.63773
1528.88	-0.258698
1529.04	9.27106
1529.2	3.03946
1529.36	6.50311
1529.52	0.658325
1529.68	3.7442
1529.84	-0.475433
1530	3.2478
1530.16	4.77078
1530.33	-1.37915
1530.49	3.42606
1530.65	0.971558
1530.81	0.742828
1530.97	-3.51752
1531.13	0.666138
1531.29	0.404022
1531.45	3.41467
1531.61	2.14841
1531.77	1.0083
1531.93	3.07101
1532.09	8.39163
1532.25	2.97873
1532.41	8.40387
1532.58	0.472595
1532.74	-0.124146
1532.9	4.70023
1533.06	-1.50174
1533.22	5.54593
1533.38	0.881561
1533.54	8.29892
1533.7	0.715912
1533.86	1.98209
1534.02	-1.85416
1534.18	0.868591
1534.34	-0.234131
1534.5	-3.01871
1534.66	4.66898
1534.82	2.21185
1534.98	5.42535
1535.15	9.95871
1535.31	3.83505
1535.47	3.89313
1535.63	4.65536
1535.79	-1.54391
1535.95	2.28668
1536.11	7.72192
1536.27	7.50406
1536.43	0.468781
1536.59	1.96136
1536.75	4.25638
1536.91	0.49469
1537.07	-2.51511
1537.23	5.54544
1537.39	0.959167
1537.55	-3.10394
1537.71	0.608063
1537.87	4.71982
1538.03	0.996124
1538.19	6.80206
1538.36	3.56949
1538.52	4.83835
1538.68	3.82629
1538.84	6.55298
1539	3.35767
1539.16	0.289856
1539.32	5.71118
1539.48	1.18762
1539.64	-1.34741
1539.8	8.40677
1539.96	5.24701
1540.12	7.9115
1540.28	4.5141
1540.44	3.62411
1540.6	6.77747
1540.76	-0.901794
1540.92	6.24374
1541.08	13.1227
1541.24	0.950562
1541.4	-0.94696
1541.56	2.3653
1541.72	9.42462
1541.88	-3.73044
1542.04	9.13644
1542.2	2.40213
1542.36	0.76767
1542.52	6.53897
1542.68	6.00787
1542.84	9.71964
1543.01	2.54636
1543.17	11.0741
1543.33	8.38428
1543.49	6.99585
1543.65	6.17444
1543.81	6.48346
1543.97	0.909454
1544.13	4.1843
1544.29	2.70221
1544.45	5.69168
1544.61	0.91098
1544.77	3.2366
1544.93	4.85379
1545.09	9.27844
1545.25	2.6795
1545.41	1.80902
1545.57	0.445251
1545.73	4.56924
1545.89	12.922
1546.05	2.34579
1546.21	-1.15714
1546.37	3.23227
1546.53	1.7605
1546.69	6.90369
1546.85	6.53571
1547.01	5.43134
1547.17	-0.429657
1547.33	2.40085
1547.49	3.01505
1547.65	3.47028
1547.81	2.86438
1547.97	5.88422
1548.13	2.6691
1548.29	6.64511
1548.45	4.91302
1548.61	5.38654
1548.77	5.58893
1548.93	4.55002
1549.09	5.48877
1549.25	7.87375
1549.41	1.69327
1549.57	9.65674
1549.73	5.45941
1549.89	3.70648
1550.05	1.4978
1550.21	5.89966
1550.37	7.16449
1550.53	3.12076
1550.69	4.16629
1550.85	8.71027
1551.01	3.49216
1551.17	4.30646
1551.33	0.338257
1551.49	3.34293
1551.65	5.87659
1551.81	3.9556
1551.97	3.72141
1552.13	1.93991
1552.29	3.83917
1552.45	4.23773
1552.61	3.8974
1552.77	0.915039
1552.93	2.96146
1553.09	4.12442
1553.25	-2.21164
1553.41	0.592926
1553.57	4.38367
1553.73	8.96182
1553.89	7.40338
1554.05	2.99695
1554.21	3.15375
1554.37	4.29974
1554.53	6.90128
1554.69	6.90753
1554.84	6.10284
1555	4.7211
1555.16	-0.478058
1555.32	1.56177
1555.48	5.06009
1555.64	3.17599
1555.8	13.3774
1555.96	6.58841
1556.12	3.01874
1556.28	12.2705
1556.44	1.19318
1556.6	0.518982
1556.76	-2.30905
1556.92	15.7523
1557.08	8.04807
1557.24	3.59637
1557.4	1.76108
1557.56	-2.0621
1557.72	3.67261
1557.88	3.73569
1558.04	2.90976
1558.2	1.99533
1558.36	5.02338
1558.52	-2.7236
1558.68	0.830505
1558.84	1.66141
1558.99	6.26697
1559.15	1.93533
1559.31	7.89612
1559.47	2.9407
1559.63	8.8616
1559.79	0.349274
1559.95	-0.662872
1560.11	2.92197
1560.27	3.74142
1560.43	6.29462
1560.59	1.96979
1560.75	0.415375
1560.91	1.22626
1561.07	1.90109
1561.23	1.60635
1561.39	3.67648
1561.55	3.80637
1561.71	10.2618
1561.87	-4.67691
1562.03	-1.43484
1562.19	3.23492
1562.35	6.64615
1562.5	3.91339
1562.66	6.91806
1562.82	9.09238
1562.98	4.61215
1563.14	0.0952454
1563.3	2.23724
1563.46	7.21866
1563.62	4.32767
1563.78	5.09192
1563.94	3.46863
1564.1	1.70898
1564.26	7.48502
1564.42	3.00711
1564.58	1.21979
1564.73	4.34436
1564.89	7.95856
1565.05	5.84024
1565.21	5.60147
1565.37	0.486328
1565.53	5.61395
1565.69	5.11383
1565.85	-1.1087
1566.01	10.1789
1566.17	2.6358
1566.33	-1.77802
1566.49	3.63763
1566.65	4.22424
1566.81	4.73154
1566.97	-2.85413
1567.12	1.19958
1567.28	1.09119
1567.44	0.975128
1567.6	-2.5668
1567.76	10.7481
1567.92	6.88928
1568.08	5.00861
1568.24	5.02817
1568.4	4.35141
1568.56	9.62897
1568.72	-2.56915
1568.88	6.32162
1569.03	1.93753
1569.19	2.85989
1569.35	6.62097
1569.51	-0.976471
1569.67	5.24493
1569.83	2.00189
1569.99	-2.72632
1570.15	11.3308
1570.31	-0.0166931
1570.47	-0.241943
1570.63	-3.23563
1570.78	4.73898
1570.94	0.448944
1571.1	1.44211
1571.26	1.72864
1571.42	15.0602
1571.58	0.963715
1571.74	3.17853
1571.9	4.06662
1572.06	4.6749
1572.22	9.64426
1572.38	8.58691
1572.53	4.68405
1572.69	9.09061
1572.85	4.01038
1573.01	1.03162
1573.17	1.74054
1573.33	-1.80484
1573.49	2.72736
1573.65	2.5361
1573.81	4.7532
1573.96	1.19022
1574.12	-0.861664
1574.28	6.55103
1574.44	4.6861
1574.6	1.88458
1574.76	3.5029
1574.92	4.21814
1575.08	2.9693
1575.24	1.66266
1575.39	6.16751
1575.55	4.90723
1575.71	2.57559
1575.87	3.50073
1576.03	7.22229
1576.19	4.3277
1576.35	4.11841
1576.51	0.73645
1576.67	5.2489
1576.82	3.71036
1576.98	-1.06589
1577.14	-4.58954
1577.3	6.76782
1577.46	1.37265
1577.62	0.116058
1577.78	6.56073
1577.94	-2.5925
1578.09	-0.292633
1578.25	3.09039
1578.41	-6.25916
1578.57	0.460358
1578.73	0.231415
1578.89	1.54608
1579.05	-0.620972
1579.21	1.79453
1579.36	-2.5275
1579.52	-1.28979
1579.68	1.70099
1579.84	7.57843
1580	2.6781
1580.16	0.526123
1580.32	-0.672363
1580.47	4.54977
1580.63	2.70093
1580.79	1.52872
1580.95	-3.93433
1581.11	-1.75339
1581.27	-6.53125
1581.43	4.59125
1581.59	-1.5618
1581.74	-0.55307
1581.9	3.66611
1582.06	0.483398
1582.22	0.832367
1582.38	3.43594
1582.54	-0.189178
1582.7	-0.226044
1582.85	3.29987
1583.01	-0.488342
1583.17	3.17096
1583.33	-4.14487
1583.49	3.89401
1583.65	-1.71359
1583.8	4.26483
1583.96	1.60208
1584.12	-2.50198
1584.28	5.11829
1584.44	8.66769
1584.6	4.27985
1584.76	7.75381
1584.91	-0.45755
1585.07	4.59125
1585.23	3.504
1585.39	0.46521
1585.55	2.75607
1585.71	2.53714
1585.87	6.02698
1586.02	-2.51257
1586.18	7.8418
1586.34	1.46548
1586.5	0.378418
1586.66	3.85333
1586.82	-0.622925
1586.97	-0.519684
1587.13	0.186798
1587.29	0.94873
1587.45	5.07401
1587.61	9.18994
1587.77	-4.05951
1587.92	0.900635
1588.08	-1.32059
1588.24	3.60092
1588.4	6.10123
1588.56	2.53455
1588.72	0.0941772
1588.87	-0.557159
1589.03	5.67346
1589.19	3.27048
1589.35	-2.10873
1589.51	-0.0398865
1589.67	7.03442
1589.82	-0.330536
1589.98	-1.71866
1590.14	-0.28598
1590.3	0.848206
1590.46	-4.14169
1590.62	4.90527
1590.77	2.65637
1590.93	6.57559
1591.09	2.43646
1591.25	14.5304
1591.41	1.96478
1591.56	0.652557
1591.72	-0.726929
1591.88	0.255615
1592.04	-2.90225
1592.2	-3.26434
1592.36	4.33392
1592.51	2.00253
1592.67	-2.58255
1592.83	3.33832
1592.99	-0.62619
1593.15	0.943848
1593.3	4.38022
1593.46	-5.04993
1593.62	0.686859
1593.78	1.63367
1593.94	-2.53864
1594.09	-3.42715
1594.25	2.09088
1594.41	2.05621
1594.57	6.87234
1594.73	1.41104
1594.88	2.21545
1595.04	4.80026
1595.2	-1.19293
1595.36	1.38721
1595.52	4.40442
1595.67	-1.7019
1595.83	2.6915
1595.99	-0.86322
1596.15	0.294586
1596.31	5.23679
1596.47	-0.0869751
1596.62	7.60443
1596.78	-0.282928
1596.94	-4.83218
1597.1	0.668335
1597.25	-3.99301
1597.41	0.988678
1597.57	6.44785
1597.73	2.66885
1597.89	-1.67072
1598.04	5.00845
1598.2	-4.05167
1598.36	-5.01035
1598.52	1.19559
1598.68	0.48761
1598.83	1.2197
1598.99	4.28696
1599.15	1.95984
1599.31	-2.79535
1599.47	2.02176
1599.62	1.10577
1599.78	0.879089
1599.94	-5.38458
1600.1	-1.27148
1600.25	1.21655
1600.41	0.567474
1600.57	-2.08484
1600.73	2.07574
1600.89	-7.08337
1601.04	1.66299
1601.2	1.36066
1601.36	1.5307
1601.52	2.97888
1601.67	3.67664
1601.83	3.16724
1601.99	0.0414734
1602.15	-0.970093
1602.31	-1.29559
1602.46	1.68353
1602.62	1.42166
1602.78	-2.0835
1602.94	4.0881
1603.09	2.25974
1603.25	0.173401
1603.41	6.62839
1603.57	12.8329
1603.72	-0.502563
1603.88	-1.90244
1604.04	-1.84763
1604.2	4.16904
1604.35	0.353821
1604.51	5.1243
1604.67	1.48315
1604.83	-4.84958
1604.99	1.38974
1605.14	-1.86865
1605.3	4.7041
1605.46	-4.93576
1605.62	1.68536
1605.77	-3.94748
1605.93	0.711731
1606.09	-3.43121
1606.25	4.14377
1606.4	0.693604
1606.56	1.30447
1606.72	1.04825
1606.88	-3.24454
1607.03	0.290436
1607.19	-4.25089
1607.35	-2.28439
1607.51	-0.0810852
1607.66	-1.77158
1607.82	-6.73636
1607.98	4.08109
1608.14	-3.87488
1608.29	-0.834015
1608.45	-1.03262
1608.61	-0.812653
1608.77	-1.99106
1608.92	0.192749
1609.08	-1.5741
1609.24	3.35486
1609.4	1.13867
1609.55	-2.41132
1609.71	-2.85242
1609.87	5.73578
1610.03	11.3645
1610.18	3.32379
1610.34	-0.640717
1610.5	1.73871
1610.66	4.19144
1610.81	-0.149658
1610.97	-2.39548
1611.13	-1.05389
1611.28	-3.65848
1611.44	3.07837
1611.6	-2.74994
1611.76	0.463654
1611.91	-2.54053
1612.07	2.22214
1612.23	0.629486
1612.39	4.53854
1612.54	1.04828
1612.7	-1.00864
1612.86	5.25665
1613.02	2.61902
1613.17	2.42343
1613.33	1.53302
1613.49	-7.99387
1613.64	5.23102
1613.8	2.90955
1613.96	-1.35431
1614.12	-0.921753
1614.27	1.38635
1614.43	1.31311
1614.59	3.73285
1614.75	-3.46701
1614.9	-2.09573
1615.06	-0.708435
1615.22	-0.407562
1615.37	7.51642
1615.53	6.50134
1615.69	3.03159
1615.84	-4.19992
1616	2.3862
1616.16	8.8927
1616.32	4.31442
1616.47	9.2049
1616.63	-2.44925
1616.79	-3.05258
1616.95	2.39023
1617.1	4.93607
1617.26	-0.462982
1617.42	2.54367
1617.57	-0.618744
1617.73	7.07391
1617.89	-0.609161
1618.04	3.03012
1618.2	-1.18689
1618.36	6.90497
1618.52	1.8551
1618.67	2.76666
1618.83	8.0654
1618.99	4.87772
1619.14	-0.108002
1619.3	4.25467
1619.46	1.31064
1619.61	16.9587
1619.77	5.30597
1619.93	-1.21884
1620.09	7.36469
1620.24	-1.54062
1620.4	4.81961
1620.56	-4.63028
1620.71	-4.56824
1620.87	5.89795
1621.03	4.99445
1621.18	7.52502
1621.34	1.53564
1621.5	-3.21933
1621.65	4.05353
1621.81	4.77832
1621.97	-4.08725
1622.13	3.50848
1622.28	5.42755
1622.44	2.73401
1622.6	7.05396
1622.75	-2.24057
1622.91	5.27832
1623.07	5.14301
1623.22	5.50281
1623.38	-1.34113
1623.54	1.00867
1623.69	1.02005
1623.85	3.4472
1624.01	2.1214
1624.16	16.2326
1624.32	6.48889
1624.48	5.89078
1624.63	4.41467
1624.79	-0.0520935
1624.95	4.55154
1625.11	11.6021
1625.26	6.34985
1625.42	0.664246
1625.58	9.51074
1625.73	2.7746
1625.89	5.18365
1626.05	-2.01413
1626.2	1.12473
1626.36	2.2049
1626.52	2.87061
1626.67	3.31204
1626.83	4.94357
1626.99	4.02802
1627.14	9.13135
1627.3	2.38788
1627.46	6.3302
1627.61	-2.23065
1627.77	7.61456
1627.93	3.02243
1628.08	-0.911041
1628.24	1.77414
1628.4	4.27701
1628.55	2.60501
1628.71	7.05789
1628.87	3.73959
1629.02	4.27841
1629.18	5.05167
1629.33	4.3811
1629.49	5.43744
1629.65	1.99335
1629.8	2.32013
1629.96	-3.52014
1630.12	2.80759
1630.27	-0.404785
1630.43	4.28555
1630.59	4.84387
1630.74	2.1738
1630.9	5.25067
1631.06	2.56104
1631.21	3.18512
1631.37	15.3978
1631.53	2.43527
1631.68	-3.71381
1631.84	-1.22012
1632	3.69336
1632.15	2.45453
1632.31	7.52454
1632.46	1.46295
1632.62	2.47226
1632.78	7.44431
1632.93	4.96808
1633.09	-1.86801
1633.25	0.697754
1633.4	3.168
1633.56	1.89728
1633.72	-1.57205
1633.87	1.22369
1634.03	2.60852
1634.19	0.523315
1634.34	10.6461
1634.5	4.81705
1634.65	5.50381
1634.81	6.61932
1634.97	8.24979
1635.12	8.53522
1635.28	-1.57315
1635.44	8.27042
1635.59	2.52109
1635.75	-0.899719
1635.91	5.87057
1636.06	11.8495
1636.22	-1.6535
1636.37	-0.487061
1636.53	9.14636
1636.69	3.42923
1636.84	7.39572
1637	7.93347
1637.15	7.69327
1637.31	7.17432
1637.47	6.44568
1637.62	4.45053
1637.78	7.19998
1637.94	3.50775
1638.09	11.246
1638.25	5.14099
1638.41	2.49994
1638.56	4.83923
1638.72	4.46786
1638.87	3.98566
1639.03	6.05191
1639.19	5.94492
1639.34	-1.76059
1639.5	4.0752
1639.65	6.80695
1639.81	7.88547
1639.97	6.05792
1640.12	2.58951
1640.28	7.34271
1640.43	-0.454407
1640.59	0.370361
1640.75	8.20126
1640.9	9.28506
1641.06	13.0274
1641.22	-2.54254
1641.37	1.68423
1641.53	8.90002
1641.68	4.39554
1641.84	8.96024
1642	5.72958
1642.15	5.0188
1642.31	9.48502
1642.46	12.5009
1642.62	13.8796
1642.78	7.27036
1642.93	4.06403
1643.09	5.17749
1643.24	2.483
1643.4	-0.839508
1643.56	2.05444
1643.71	-3.79276
1643.87	7.01547
1644.02	0.586426
1644.18	2.84717
1644.33	3.13287
1644.49	5.49173
1644.65	12.1255
1644.8	9.96924
1644.96	6.45532
1645.11	8.5871
1645.27	12.3032
1645.43	3.43741
1645.58	9.58517
1645.74	7.18854
1645.89	10.6359
1646.05	10.6035
1646.21	5.82059
1646.36	12.6555
1646.52	1.18295
1646.67	3.42157
1646.83	9.23694
1646.98	4.96655
1647.14	6.85202
1647.3	6.6701
1647.45	4.44702
1647.61	4.27219
1647.76	0.94519
1647.92	8.17969
1648.08	2.48505
1648.23	10.1618
1648.39	7.81528
1648.54	4.65781
1648.7	2.92319
1648.85	-2.92639
1649.01	2.00885
1649.17	2.27341
1649.32	7.75586
1649.48	4.88812
1649.63	5.93671
1649.79	9.93149
1649.94	2.17871
1650.1	5.49637
1650.26	10.0277
1650.41	10.5573
1650.57	8.78763
1650.72	7.44476
1650.88	7.05792
1651.03	4.1799
1651.19	4.84134
1651.35	2.28479
1651.5	5.74924
1651.66	9.78329
1651.81	6.5643
1651.97	5.05325
1652.12	5.07578
1652.28	3.4248
1652.43	2.64087
1652.59	0.632446
1652.75	23.8261
1652.9	-0.807037
1653.06	3.23203
1653.21	4.14862
1653.37	9.16498
1653.52	3.32568
1653.68	8.50128
1653.83	3.46722
1653.99	11.8368
1654.15	7.26273
1654.3	3.293
1654.46	5.29819
1654.61	-2.46982
1654.77	11.604
1654.92	4.77667
1655.08	5.99936
1655.23	6.33737
1655.39	11.4903
1655.55	5.47855
1655.7	0.68808
1655.86	6.18088
1656.01	5.26312
1656.17	5.02588
1656.32	3.72665
1656.48	3.91315
1656.63	8.26367
1656.79	4.80383
1656.94	4.82288
1657.1	7.09094
1657.25	4.9816
1657.41	2.18585
1657.57	6.99051
1657.72	6.69412
1657.88	4.59171
1658.03	6.98959
1658.19	6.86755
1658.34	16.147
1658.5	6.28458
1658.65	2.28433
1658.81	6.61942
1658.96	2.02106
1659.12	9.37585
1659.27	4.30579
1659.43	7.38016
1659.58	3.966
1659.74	0.325836
1659.89	7.08276
1660.05	4.41043
1660.21	-0.919373
1660.36	11.5055
1660.52	7.42984
1660.67	2.44974
1660.83	4.72491
1660.98	8.03299
1661.14	5.08624
1661.29	3.68472
1661.45	2.2034
1661.6	3.73254
1661.76	5.06308
1661.91	5.06323
1662.07	4.94852
1662.22	5.44513
1662.38	7.66599
1662.53	6.87415
1662.69	7.03589
1662.84	3.41785
1663	6.65042
1663.15	4.56311
1663.31	7.17343
1663.46	7.03915
1663.62	8.87466
1663.77	5.3291
1663.93	0.392517
1664.08	10.8295
1664.24	4.65314
1664.39	2.90921
1664.55	6.41064
1664.7	7.51956
1664.86	5.00217
1665.02	7.82022
1665.17	4.40756
1665.33	8.78867
1665.48	11.2662
1665.64	2.44598
1665.79	4.63538
1665.95	1.35696
1666.1	0.957916
1666.26	7.12546
1666.41	6.93289
1666.56	3.31973
1666.72	-0.762177
1666.87	4.47635
1667.03	3.45297
1667.18	2.95023
1667.34	3.32086
1667.5	4.91788
1667.65	7.56738
1667.81	4.29309
1667.96	-0.599243
1668.11	9.58456
1668.27	1.88806
1668.42	8.32614
1668.58	4.24713
1668.73	6.10562
1668.89	7.22919
1669.04	4.9353
1669.2	6.70645
1669.35	5.496
1669.51	2.3945
1669.66	7.07227
1669.82	7.30539
1669.97	4.93204
1670.13	9.91879
1670.28	5.14651
1670.44	3.55063
1670.59	1.39441
1670.75	3.61542
1670.9	0.0192261
1671.06	4.11588
1671.21	11.391
1671.37	5.55078
1671.52	11.6459
1671.68	3.4437
1671.83	4.41849
1671.99	3.51517
1672.14	4.67355
1672.29	9.84766
1672.45	1.95673
1672.6	3.93781
1672.76	6.34885
1672.91	4.81262
1673.07	5.79346
1673.22	1.83551
1673.38	7.3082
1673.53	-0.0446777
1673.69	6.55511
1673.84	7.62885
1674	5.98038
1674.15	1.45599
1674.31	5.64893
1674.46	7.12421
1674.61	2.18811
1674.77	2.31519
1674.92	6.39206
1675.08	6.61789
1675.23	1.27011
1675.39	4.7392
1675.54	0.947021
1675.7	3.8399
1675.85	3.23569
1676.01	7.45645
1676.16	6.91473
1676.31	3.97635
1676.47	3.8064
1676.62	3.39224
1676.78	5.57123
1676.93	1.21063
1677.09	7.09677
1677.24	6.90219
1677.4	5.84195
1677.55	1.29211
1677.71	-2.05551
1677.86	6.30707
1678.02	11.8263
1678.17	7.68448
1678.32	3.88803
1678.48	0.0714417
1678.63	0.230316
1678.79	6.92639
1678.94	0.345551
1679.1	2.74213
1679.25	7.49194
1679.41	-2.35129
1679.56	0.539185
1679.71	2.20837
1679.87	3.6087
1680.02	-0.5383
1680.18	11.9968
1680.33	4.12747
1680.49	3.13147
1680.64	6.55063
1680.79	5.38644
1680.95	4.97348
1681.1	5.64771
1681.26	3.50284
1681.41	7.67981
1681.57	-0.370026
1681.72	3.68118
1681.88	-4.28955
1682.03	9.09616
1682.18	-0.198883
1682.34	3.64948
1682.49	4.86996
1682.65	4.13623
1682.8	7.84601
1682.96	1.41946
1683.11	2.6333
1683.26	3.51288
1683.42	0.873322
1683.57	3.17435
1683.73	6.8504
1683.88	7.98328
1684.03	7.94876
1684.19	7.93604
1684.34	-1.46225
1684.5	1.81564
1684.65	0.733337
1684.81	0.709839
1684.96	-1.30634
1685.12	-2.38608
1685.27	5.25305
1685.42	-1.47156
1685.58	2.26355
1685.73	-2.1366
1685.89	2.46509
1686.04	3.5051
1686.19	1.26917
1686.35	-1.21432
1686.5	9.81601
1686.66	2.90259
1686.81	0.921753
1686.96	-1.21259
1687.12	7.55707
1687.27	13.5825
1687.43	5.90924
1687.58	1.10812
1687.74	13.5516
1687.89	0.758667
1688.04	4.56717
1688.2	2.1698
1688.35	3.46863
1688.5	2.60025
1688.66	-0.712952
1688.81	0.425293
1688.97	2.67426
1689.12	2.74857
1689.27	3.5827
1689.43	2.60229
1689.58	3.54672
1689.74	2.20401
1689.89	2.19455
1690.05	4.64163
1690.2	-1.84396
1690.35	2.44714
1690.51	2.29541
1690.66	8.48859
1690.81	2.10794
1690.97	2.82288
1691.12	5.41315
1691.28	0.436554
1691.43	4.66925
1691.58	4.07086
1691.74	3.69238
1691.89	1.70752
1692.05	1.01837
1692.2	0.334045
1692.35	4.81052
1692.51	-0.1362
1692.66	1.33572
1692.82	0.0504456
1692.97	8.32538
1693.12	5.12704
1693.28	1.60898
1693.43	3.28424
1693.58	0.572937
1693.74	7.19693
1693.89	1.88174
1694.05	-1.40668
1694.2	2.1514
1694.35	6.10861
1694.51	2.3172
1694.66	3.15115
1694.81	4.2937
1694.97	2.5047
1695.12	2.04807
1695.28	3.06708
1695.43	1.23584
1695.58	-1.07837
1695.74	-0.111389
1695.89	-1.1738
1696.04	-0.458069
1696.2	-3.60764
1696.35	2.37372
1696.51	1.27295
1696.66	2.51297
1696.81	1.98978
1696.97	1.58774
1697.12	4.46915
1697.27	-0.582489
1697.43	-4.07123
1697.58	-3.44876
1697.74	0.871582
1697.89	0.311798
1698.04	2.43106
1698.2	1.21729
1698.35	0.828491
1698.5	2.2691
1698.66	1.1976
1698.81	0.505432
1698.96	0.940643
1699.12	4.65433
1699.27	1.99301
1699.42	3.72629
1699.58	1.12555
1699.73	-1.38971
1699.88	0.605927
1700.04	1.99078
1700.19	0.738373
1700.35	1.6434
1700.5	-0.624054
1700.65	-2.6441
1700.81	-1.38251
1700.96	0.553741
1701.11	6.77231
1701.27	3.90332
1701.42	2.73376
1701.57	5.74634
1701.73	2.83237
1701.88	-0.113739
1702.03	4.31262
1702.19	-0.716156
1702.34	-2.90579
1702.49	0.202881
1702.65	-1.19495
1702.8	1.8284
1702.95	2.4223
1703.11	1.51968
1703.26	-1.09085
1703.42	1.16302
1703.57	-1.47397
1703.72	0.577362
1703.88	1.64957
1704.03	0.679016
1704.18	0.348999
1704.33	1.12848
1704.49	4.4606
1704.64	2.6145
1704.79	0.482971
1704.95	1.43756
1705.1	3.38248
1705.16	4.31378
1705.32	3.92679
1705.47	-0.920715
1705.63	1.0155
1705.78	1.86865
1705.94	2.09085
1706.1	5.32352
1706.25	-1.05331
1706.41	-2.47318
1706.56	-1.62415
1706.72	4.05078
1706.88	5.36575
1707.03	8.6709
1707.19	2.72891
1707.34	-0.763367
1707.5	1.47205
1707.65	-0.316864
1707.81	1.87253
1707.97	-4.3053
1708.12	-4.29605
1708.28	2.39798
1708.43	1.77023
1708.59	-2.78848
1708.74	2.10651
1708.9	2.89844
1709.06	-1.00369
1709.21	2.31369
1709.37	-2.509
1709.52	0.15799
1709.68	2.71353
1709.83	4.25711
1709.99	4.46188
1710.15	1.32339
1710.3	-3.35223
1710.46	1.89587
1710.61	3.871
1710.77	2.2377
1710.92	4.65176
1711.08	-0.999756
1711.23	6.25296
1711.39	-1.83899
1711.55	-2.09918
1711.7	0.190155
1711.86	-0.934601
1712.01	-6.56564
1712.17	2.16684
1712.32	0.0603943
1712.48	3.93127
1712.63	1.59262
1712.79	1.75266
1712.95	-0.995758
1713.1	-2.17508
1713.26	1.53741
1713.41	-3.4252
1713.57	21.1662
1713.72	8.50366
1713.88	1.46304
1714.04	0.504517
1714.19	-3.64575
1714.35	0.843048
1714.5	3.05276
1714.66	1.29059
1714.81	2.56183
1714.97	3.3179
1715.12	-5.28659
1715.28	8.88608
1715.43	1.93094
1715.59	3.36041
1715.74	-3.09174
1715.9	-2.14178
1716.06	-3.81238
1716.21	2.70621
1716.37	4.12103
1716.52	-2.60498
1716.68	5.33725
1716.83	4.23578
1716.99	-4.59003
1717.14	-0.381836
1717.3	0.292938
1717.46	-0.862457
1717.61	2.16949
1717.77	2.73059
1717.92	7.99606
1718.08	4.7276
1718.23	-0.534424
1718.39	0.358704
1718.54	1.56339
1718.7	4.3721
1718.85	1.15341
1719.01	1.71948
1719.16	0.152374
1719.32	1.43204
1719.47	8.81104
1719.63	1.39362
1719.78	1.19772
1719.94	3.99332
1720.09	5.89648
1720.25	6.39105
1720.41	3.97156
1720.56	-0.82016
1720.72	-0.331787
1720.87	9.97943
1721.03	-2.63339
1721.18	-1.65677
1721.34	-0.161682
1721.49	-1.64746
1721.65	-1.41858
1721.8	1.6282
1721.96	6.54037
1722.11	0.717316
1722.27	-0.594849
1722.42	-3.22205
1722.58	8.02951
1722.73	0.0382996
1722.89	-1.96085
1723.04	5.12695
1723.2	3.66418
1723.35	0.753693
1723.51	2.7482
1723.66	-0.975983
1723.82	1.08002
1723.97	-1.78757
1724.13	-0.531342
1724.28	-1.71024
1724.44	-1.08667
1724.6	-2.36899
1724.75	-0.0722046
1724.9	3.39914
1725.06	0.80191
1725.21	-3.32819
1725.37	5.89398
1725.53	2.34039
1725.68	-1.52866
1725.84	2.55206
1725.99	7.42807
1726.14	-3.51288
1726.3	-0.087738
1726.45	1.55182
1726.61	2.8876
1726.77	7.81808
1726.92	0.940094
1727.07	3.44415
1727.23	5.67001
1727.38	1.02921
1727.54	-2.8569
1727.7	3.02841
1727.85	-4.40482
1728	-2.65344
1728.16	-2.93521
1728.31	-1.53702
1728.47	1.20895
1728.62	-0.984283
1728.78	0.397675
1728.93	3.06802
1729.09	0.796936
1729.24	-3.84744
1729.4	7.50772
1729.55	2.64142
1729.71	1.53314
1729.86	5.48196
1730.02	6.54868
1730.17	1.64374
1730.33	-0.638092
1730.48	1.43118
1730.64	-1.77689
1730.79	5.30225
1730.95	5.35425
1731.1	0.897339
1731.26	1.98294
1731.41	0.658752
1731.57	-0.79538
1731.72	4.15182
1731.88	1.60651
1732.03	-0.809296
1732.18	0.672211
1732.34	0.703613
1732.49	1.73541
1732.65	5.49979
1732.8	3.72638
1732.96	-1.03946
1733.11	-4.28836
1733.27	-1.82095
1733.42	-1.66223
1733.58	2.33789
1733.73	7.10574
1733.89	-3.9314
1734.04	-0.487671
1734.2	1.0976
1734.35	0.193146
1734.51	3.61557
1734.66	2.56882
1734.82	1.38898
1734.97	-0.0692749
1735.12	1.0733
1735.28	1.57724
1735.43	-2.84399
1735.59	1.58456
1735.74	0.348816
1735.9	-1.3371
1736.05	5.30139
1736.21	0.506683
1736.36	-1.75284
1736.52	0.688293
1736.67	1.59991
1736.82	3.05832
1736.98	7.56903
1737.13	2.55722
1737.29	1.81024
1737.44	1.13199
1737.6	3.70175
1737.75	3.64993
1737.91	0.0537109
1738.06	-0.639771
1738.21	2.68643
1738.37	9.88831
1738.52	4.61975
1738.68	2.03748
1738.83	-0.357758
1738.99	-0.222687
1739.14	1.32928
1739.3	-0.282288
1739.45	0.82785
1739.61	2.86478
1739.76	-1.84888
1739.91	8.90244
1740.07	0.772491
1740.22	5.16226
1740.38	-1.97586
1740.53	6.53757
1740.69	6.05652
1740.84	1.4743
1741	-2.64551
1741.15	3.07986
1741.3	3.35751
1741.46	4.5296
1741.61	9.56772
1741.77	-5.51852
1741.92	1.00516
1742.08	0.239868
1742.23	-1.79605
1742.38	0.838196
1742.54	4.0058
1742.69	4.2532
1742.85	-1.06686
1743	2.78818
1743.16	-1.14316
1743.31	2.57828
1743.46	-4.69986
1743.62	2.81091
1743.77	2.51959
1743.93	-0.533051
1744.08	0.823944
1744.24	4.57858
1744.39	0.171448
1744.54	3.3649
1744.7	2.95224
1744.85	4.67032
1745.01	-4.86444
1745.16	1.80029
1745.32	0.32373
1745.47	-0.306854
1745.62	1.13196
1745.78	-2.19363
1745.93	2.22943
1746.09	7.76596
1746.24	2.63785
1746.39	-2.24829
1746.55	0.440216
1746.7	0.0402527
1746.86	-1.57861
1747.01	-5.61166
1747.16	-4.35193
1747.32	0.195099
1747.47	2.96011
1747.63	4.75674
1747.78	6.57996
1747.94	0.616028
1748.09	-3.17984
1748.24	6.41544
1748.4	-1.90274
1748.55	6.33267
1748.71	-0.317352
1748.86	1.64636
1749.01	-4.24088
1749.17	-1.98022
1749.32	6.16171
1749.48	3.48441
1749.63	5.42667
1749.78	3.50061
1749.94	-0.134369
1750.09	-1.6279
1750.25	0.302063
1750.4	5.7561
1750.55	3.27811
1750.71	3.34137
1750.86	0.420898
1751.02	1.70569
1751.17	10.61
1751.32	-1.2305
1751.48	1.96857
1751.63	9.10712
1751.79	-2.26001
1751.94	3.49335
1752.09	1.1886
1752.25	2.41711
1752.4	-1.59561
1752.56	7.31754
1752.71	-2.58905
1752.86	2.32401
1753.02	1.56277
1753.17	-0.732849
1753.33	6.27786
1753.48	1.51968
1753.63	4.33255
1753.79	5.87558
1753.94	6.17606
1754.09	2.77374
1754.25	4.31158
1754.4	1.84998
1754.56	-1.96188
1754.71	-0.131073
1754.86	3.31995
1755.02	-2.19891
1755.17	-4.78198
1755.33	-4.62994
1755.48	2.62079
1755.63	5.84869
1755.79	1.16708
1755.94	4.42804
1756.09	-0.589172
1756.25	-1.76569
1756.4	0.927826
1756.55	4.66089
1756.71	1.82849
1756.86	-2.48227
1757.02	0.613861
1757.17	-1.09891
1757.32	3.29163
1757.48	-1.27338
1757.63	3.94894
1757.78	7.00607
1757.94	-6.21268
1758.09	3.07819
1758.25	1.98724
1758.4	5.51956
1758.55	4.03662
1758.71	0.375671
1758.86	-1.66718
1759.01	5.07562
1759.17	-0.702209
1759.32	3.02402
1759.47	1.57709
1759.63	0.116302
1759.78	0.559601
1759.93	3.09805
1760.09	-0.412445
1760.24	4.38821
1760.4	0.831268
1760.55	0.0636902
1760.7	2.99692
1760.86	4.64325
1761.01	-1.81659
1761.16	0.982758
1761.32	2.86667
1761.47	1.31509
1761.62	4.42667
1761.78	5.68842
1761.93	-0.347168
1762.09	-2.7634
1762.24	5.96759
1762.39	2.07675
1762.54	4.24542
1762.7	9.04385
1762.85	1.73401
1763.01	-0.36911
1763.16	5.64362
1763.31	4.79053
1763.47	6.12787
1763.62	3.77499
1763.77	2.21677
1763.93	7.82425
1764.08	4.96664
1764.23	-3.2114
1764.39	4.50925
1764.54	0.189819
1764.69	0.200348
1764.85	4.87738
1765	4.82965
1765.15	2.12851
1765.31	4.46393
1765.46	4.44736
1765.61	-0.212433
1765.77	-1.69177
1765.92	4.24252
1766.07	2.01318
1766.23	-1.72226
1766.38	0.879333
1766.53	-5.19937
1766.69	5.06168
1766.84	-1.80017
1766.99	5.13797
1767.15	-3.65625
1767.3	5.14935
1767.45	4.54779
1767.61	-2.89435
1767.76	7.95242
1767.91	-0.782654
1768.07	-0.644684
1768.22	4.58307
1768.37	0.184448
1768.53	0.373199
1768.68	-1.26688
1768.83	7.4411
1768.99	-2.22171
1769.14	0.560425
1769.29	6.85681
1769.44	3.47495
1769.6	0.920929
1769.75	-2.0192
1769.9	1.15256
1770.06	0.160706
1770.21	2.88788
1770.36	4.80014
1770.52	0.0190125
1770.67	0.939758
1770.82	0.280884
1770.98	-4.43353
1771.13	-3.35754
1771.28	1.05298
1771.44	-1.86517
1771.59	1.13123
1771.74	-0.538666
1771.9	-2.29614
1772.05	-2.31638
1772.2	7.7124
1772.35	0.550446
1772.51	3.00323
1772.66	4.27124
1772.81	-2.68375
1772.97	0.543243
1773.12	0.0724487
1773.27	-2.25952
1773.43	3.05774
1773.58	-1.50226
1773.73	-2.65131
1773.88	-2.55478
1774.04	-2.91147
1774.19	-2.47702
1774.34	0.323578
1774.5	-3.5592
1774.65	-4.68198
1774.8	-2.40714
1774.96	-0.903931
1775.11	3.16257
1775.26	-0.00878906
1775.41	-0.318359
1775.57	-1.08698
1775.72	3.83359
1775.87	1.36615
1776.03	-0.758057
1776.18	-1.00171
1776.33	-2.05444
1776.48	2.58786
1776.64	0.372833
1776.79	1.75128
1776.94	2.11737
1777.1	1.51074
1777.25	-0.0919189
1777.4	-5.45331
1777.56	1.38431
1777.71	3.51816
1777.86	1.12192
1778.01	6.90451
1778.17	1.98682
1778.32	1.24265
1778.47	1.38443
1778.62	-1.20145
1778.78	-2.513
1778.93	-1.63586
1779.08	3.49524
1779.24	-2.34921
1779.39	2.11121
1779.54	-3.69717
1779.69	0.0544128
1779.85	-3.61728
1780	4.46249
1780.15	1.8988
1780.31	2.63489
1780.46	0.382019
1780.61	1.33655
1780.76	-0.623322
1780.92	-1.90646
1781.07	6.85577
1781.22	0.194244
1781.37	1.40952
1781.53	-1.6452
1781.68	3.26035
1781.83	-1.3811
1781.98	-2.99704
1782.14	3.96289
1782.29	6.72141
1782.44	5.66727
1782.59	5.80966
1782.75	-1.92178
1782.9	1.69479
1783.05	-0.202911
1783.21	2.27615
1783.36	5.86111
1783.51	2.80466
1783.66	-0.0254517
1783.82	-0.100464
1783.97	-3.24084
1784.12	1.45584
1784.27	-2.23495
1784.43	-0.175232
1784.58	0.49115
1784.73	-4.39941
1784.88	1.21164
1785.04	5.43829
1785.19	-1.57257
1785.34	0.238098
1785.49	3.28101
1785.65	0.878632
1785.8	3.05188
1785.95	-0.422485
1786.1	2.1973
1786.26	6.06757
1786.41	0.537231
1786.56	3.08261
1786.71	-0.520142
1786.87	-5.26407
1787.02	6.44351
1787.17	-2.44888
1787.32	-4.75604
1787.48	6.54364
1787.63	-1.63388
1787.78	-2.18192
1787.93	11.5571
1788.09	0.753387
1788.24	-3.60446
1788.39	-2.57883
1788.54	-3.02509
1788.69	6.38455
1788.85	4.47742
1789	-0.198456
1789.15	6.45517
1789.3	0.912567
1789.46	1.35739
1789.61	-0.333435
1789.76	-3.10767
1789.91	2.5813
1790.07	-1.37396
1790.22	-1.84082
1790.37	3.81296
1790.52	0.0140381
1790.67	2.47006
1790.83	5.4928
1790.98	3.28235
1791.13	-1.23853
1791.28	-1.06839
1791.44	-1.22205
1791.59	1.67636
1791.74	-0.948578
1791.89	-0.884033
1792.05	7.59354
1792.2	-0.856689
1792.35	2.72754
1792.5	-1.35767
1792.65	-1.40964
1792.81	-2.55078
1792.96	5.74814
1793.11	-1.45615
1793.26	-0.262756
1793.42	-3.64923
1793.57	1.88895
1793.72	-3.37497
1793.87	-3.57565
1794.02	3.37405
1794.18	-0.394989
1794.33	-5.11841
1794.48	-3.81027
1794.63	-2.09113
1794.78	-0.722229
1794.94	-2.58618
1795.09	-3.52515
1795.24	3.23212
1795.39	-0.0617981
1795.54	4.54352
1795.7	4.45239
1795.85	6.96356
1796	6.41605
1796.15	0.97699
1796.31	-4.29581
1796.46	-3.27151
1796.61	-2.99155
1796.76	-2.51013
1796.91	-2.37695
1797.07	7.38306
1797.22	10.8952
1797.37	0.239655
1797.52	1.82529
1797.67	3.46466
1797.83	-0.798523
1797.98	-3.42023
1798.13	1.91913
1798.28	-0.805237
1798.43	-0.826599
1798.59	-0.145721
1798.74	5.68991
1798.89	-4.45248
1799.04	-5.28391
1799.19	-0.975983
1799.34	1.62384
1799.5	2.17181
1799.65	-4.24438
1799.8	0.410461
1799.95	-0.270508
1800.1	-4.53781
1800.26	1.70547
1800.41	-3.22473
1800.56	0.155945
1800.71	-5.88062
1800.86	3.29166
1801.02	-0.400818
1801.17	2.60471
1801.32	6.92371
1801.47	-0.39209
1801.62	0.752258
1801.78	0.7966
1801.93	6.53922
1802.08	-4.84692
1802.23	-4.88052
1802.38	5.65506
1802.53	5.39072
1802.69	-1.84454
1802.84	3.27405
1802.99	2.51468
1803.14	6.07193
1803.29	-1.17377
1803.44	3.19928
1803.6	2.16562
1803.75	0.943085
1803.9	0.833588
1804.05	4.52975
1804.2	7.67346
1804.35	-3.37158
1804.51	1.85681
1804.66	2.78357
1804.81	-0.626221
1804.96	-0.359314
1805.11	-4.65045
1805.26	5.27667
1805.42	2.59955
1805.57	0.0723572
1805.72	1.34634
1805.87	-1.02994
1806.02	-0.635376
1806.18	-1.79913
1806.33	5.40881
1806.48	-1.4762
1806.63	-0.83432
1806.78	-2.02322
1806.93	-6.90411
1807.08	6.13467
1807.24	-1.42841
1807.39	-0.169647
1807.54	0.387207
1807.69	-2.12012
1807.84	1.45242
1807.99	-0.914093
1808.15	2.51996
1808.3	-1.13815
1808.45	-3.45999
1808.6	-1.20612
1808.75	0.109528
1808.9	7.79169
1809.06	3.78677
1809.21	0.800568
1809.36	-3.75531
1809.51	-2.37112
1809.66	0.338684
1809.81	8.61658
1809.96	3.14389
1810.12	-2.17392
1810.27	2.70322
1810.42	4.02829
1810.57	1.45782
1810.72	-1.78864
1810.87	1.53366
1811.02	-1.73071
1811.18	-1.02173
1811.33	-1.95142
1811.48	3.48154
1811.63	-1.54874
1811.78	0.172699
1811.93	0.245087
1812.08	-1.42706
1812.24	-0.0649109
1812.39	3.46695
1812.54	-1.31775
1812.69	-3.17581
1812.84	2.64001
1812.99	1.4552
1813.14	-1.06381
1813.29	-2.53415
1813.45	3.11356
1813.6	1.44675
1813.75	-9.31311
1813.9	2.5639
1814.05	1.59122
1814.2	0.767853
1814.35	-6.8042
1814.51	2.09601
1814.66	-0.315735
1814.81	4.77884
1814.96	1.35046
1815.11	-1.04056
1815.26	1.58325
1815.41	-1.78259
1815.56	-1.85718
1815.72	2.10953
1815.87	-0.538147
1816.02	3.05334
1816.17	1.50574
1816.32	-0.0411987
1816.47	-3.16165
1816.62	-3.6196
1816.77	10.4598
1816.93	-1.362
1817.08	-1.53671
1817.23	-0.935638
1817.38	-2.62958
1817.53	1.61307
1817.68	-0.465393
1817.83	0.484741
1817.98	-1.64725
1818.13	0.861176
1818.29	-0.980438
1818.44	0.357422
1818.59	1.30988
1818.74	4.08698
1818.89	0.0726318
1819.04	3.0322
1819.19	5.15256
1819.34	-1.3078
1819.49	-0.317932
1819.65	-2.0889
1819.8	-0.854095
1819.95	0.375031
1820.1	5.57529
1820.25	-2.5556
1820.4	1.0553
1820.55	-0.0664978
1820.7	-4.24387
1820.85	-0.65509
1821.01	-1.5549
1821.16	0.720947
1821.31	22.0468
1821.46	-0.320648
1821.61	2.88962
1821.76	-0.551636
1821.91	0.713348
1822.06	6.35443
1822.21	0.0850525
1822.36	3.90134
1822.51	1.93292
1822.66	7.60373
1822.82	-0.100372
1822.97	-0.343109
1823.12	-2.65796
1823.27	-1.74109
1823.42	2.17313
1823.57	4.77673
1823.72	-1.39172
1823.87	-3.01266
1824.02	-0.702545
1824.17	2.55621
1824.33	-4.30701
1824.48	0.490387
1824.63	1.1297
1824.78	1.09592
1824.93	3.45673
1825.08	6.05148
1825.23	3.35254
1825.38	1.99304
1825.53	2.10913
1825.68	5.17014
1825.83	1.83334
1825.98	5.51917
1826.14	-1.75848
1826.29	4.46097
1826.44	1.86237
1826.59	2.78464
1826.74	5.17307
1826.89	5.40985
1827.04	6.36725
1827.19	-1.32278
1827.34	2.90546
1827.49	1.3797
1827.64	0.373871
1827.79	-0.0249023
1827.94	2.08398
1828.09	2.5538
1828.25	3.48169
1828.4	2.33612
1828.55	4.45258
1828.7	-1.9248
1828.85	5.89822
1829	6.91943
1829.15	-5.76559
1829.3	2.92551
1829.45	2.81305
1829.6	5.60419
1829.75	2.12363
1829.9	2.88446
1830.05	1.4711
1830.2	-0.734863
1830.36	-2.89029
1830.51	-1.42123
1830.66	5.32849
1830.81	1.57535
1830.96	1.07043
1831.11	-1.55917
1831.26	2.76038
1831.41	-1.67801
1831.56	2.48596
1831.71	2.62735
1831.86	2.57547
1832.01	-0.194275
1832.16	2.03995
1832.31	6.48312
1832.46	10.2152
1832.61	2.32715
1832.76	7.77469
1832.91	6.36319
1833.06	3.64923
1833.21	1.03696
1833.37	-2.0416
1833.52	3.96231
1833.67	4.6846
1833.82	1.14365
1833.97	1.34573
1834.12	3.91312
1834.27	6.19739
1834.42	1.58401
1834.57	3.58267
1834.72	2.28073
1834.87	2.16855
1835.02	-3.71765
1835.17	4.38531
1835.32	-3.25339
1835.47	1.88995
1835.62	3.79486
1835.77	1.10889
1835.92	-3.961
1836.07	2.60608
1836.22	7.08615
1836.37	5.09052
1836.52	2.91449
1836.67	0.92041
1836.83	4.22296
1836.98	6.41888
1837.13	6.74295
1837.28	1.1496
1837.43	2.00739
1837.58	0.800018
1837.73	4.15802
1837.88	2.43704
1838.03	0.0507202
1838.18	0.472443
1838.33	-0.428314
1838.48	1.61511
1838.63	4.68515
1838.78	3.08267
1838.93	4.7399
1839.08	-2.19058
1839.23	-0.253113
1839.38	3.76514
1839.53	-0.29071
1839.68	9.32925
1839.83	5.58151
1839.98	6.36661
1840.13	0.231995
1840.28	-2.33047
1840.43	0.236481
1840.58	2.83234
1840.73	0.968842
1840.88	-0.648376
1841.03	2.86899
1841.18	3.74414
1841.33	6.23834
1841.48	-0.238007
1841.63	2.55417
1841.78	-0.848083
1841.93	2.02133
1842.08	5.89322
1842.23	-1.50092
1842.38	11.7652
1842.53	3.16843
1842.68	-0.141052
1842.83	2.29297
1842.98	-0.558228
1843.13	-1.41046
1843.28	3.4303
1843.43	7.21579
1843.58	10.3779
1843.73	-0.339966
1843.88	2.90958
1844.03	1.80109
1844.18	5.26749
1844.33	3.80435
1844.48	3.06519
1844.63	3.69183
1844.78	2.091
1844.93	-1.99664
1845.08	6.19498
1845.23	7.38504
1845.38	3.19473
1845.53	3.02014
1845.68	-1.3494
1845.83	5.98737
1845.98	1.0918
1846.13	-0.696594
1846.28	-1.34116
1846.43	3.48865
1846.58	-2.89841
1846.73	1.08746
1846.88	4.5127
1847.03	4.01978
1847.18	6.46527
1847.33	1.58386
1847.48	2.2023
1847.63	5.41016
1847.78	5.21274
1847.93	4.63171
1848.08	5.72577
1848.23	6.61722
1848.38	19.5959
1848.53	9.27649
1848.68	7.46188
1848.83	5.58563
1848.98	6.1749
1849.13	2.71179
1849.28	6.82208
1849.43	5.04398
1849.58	6.00623
1849.73	1.81177
1849.88	2.1395
1850.03	6.08835
1850.18	3.54926
1850.33	0.445801
1850.48	8.08511
1850.63	5.61621
1850.78	10.7617
1850.93	6.98837
1851.08	0.927826
1851.23	1.21127
1851.38	7.04874
1851.53	3.15607
1851.68	5.85992
1851.83	8.05658
1851.98	6.3811
1852.13	8.04739
1852.27	0.589142
1852.42	3.20917
1852.57	3.0257
1852.72	3.12222
1852.87	4.51077
1853.02	2.57742
1853.17	6.86371
1853.32	1.60687
1853.47	0.00512695
1853.62	5.38007
1853.77	3.38812
1853.92	9.59894
1854.07	6.53906
1854.22	-1.84058
1854.37	3.53665
1854.52	8.13663
1854.67	4.32068
1854.82	4.76672
1854.97	6.66437
1855.12	5.68674
1855.27	5.19073
1855.42	1.90967
1855.57	6.28992
1855.72	6.44333
1855.87	2.55615
1856.01	2.1264
1856.16	0.738617
1856.31	8.36032
1856.46	5.78079
1856.61	0.442017
1856.76	6.48929
1856.91	5.76743
1857.06	-2.00064
1857.21	1.54581
1857.36	6.30743
1857.51	4.55438
1857.66	1.75171
1857.81	1.34546
1857.96	3.26123
1858.11	8.34161
1858.26	1.38144
1858.41	2.63388
1858.56	9.48865
1858.71	-0.990906
1858.86	3.00665
1859	6.40567
1859.15	5.2576
1859.3	1.07632
1859.45	2.78082
1859.6	20.997
1859.75	4.69077
1859.9	3.7135
1860.05	3.009
1860.2	4.63608
1860.35	4.30161
1860.5	7.39429
1860.65	10.3062
1860.8	3.89493
1860.95	4.98959
1861.1	3.83011
1861.24	7.00137
1861.39	7.43982
1861.54	3.96817
1861.69	12.9544
1861.84	3.63535
1861.99	6.82391
1862.14	4.72321
1862.29	5.49011
1862.44	11.1496
1862.59	3.57687
1862.74	5.27625
1862.89	4.48587
1863.04	4.34866
1863.18	2.81827
1863.33	5.33255
1863.48	2.79202
1863.63	1.76825
1863.78	-0.303223
1863.93	10.3655
1864.08	3.78778
1864.23	9.26395
1864.38	3.7283
1864.53	0.917297
1864.68	-3.56024
1864.83	5.55124
1864.97	1.96414
1865.12	7.48984
1865.27	-1.31351
1865.42	5.01056
1865.57	7.61691
1865.72	4.84424
1865.87	7.64026
1866.02	4.17477
1866.17	7.15198
1866.32	5.62317
1866.47	4.65604
1866.61	6.06775
1866.76	5.07858
1866.91	4.06561
1867.06	0.225677
1867.21	4.32739
1867.36	1.18906
1867.51	7.39297
1867.66	3.97543
1867.81	3.72415
1867.96	8.08737
1868.1	2.74887
1868.25	7.77133
1868.4	4.4801
1868.55	1.24783
1868.7	8.74973
1868.85	2.03845
1869	5.99017
1869.15	2.7178
1869.3	8.01877
1869.45	-0.134003
1869.59	4.13535
1869.74	5.48035
1869.89	8.04199
1870.04	7.00455
1870.19	7.52606
1870.34	8.55582
1870.49	2.21118
1870.64	0.548615
1870.79	6.68552
1870.93	2.03024
1871.08	3.2774
1871.23	4.57092
1871.38	6.38391
1871.53	6.67157
1871.68	-0.768188
1871.83	0.0173035
1871.98	0.367523
1872.13	0.903107
1872.27	3.11444
1872.42	5.01431
1872.57	8.06827
1872.72	2.47983
1872.87	-0.102325
1873.02	6.50119
1873.17	4.05862
1873.32	1.7019
1873.46	0.743958
1873.61	2.81631
1873.76	8.29868
1873.91	1.56491
1874.06	5.89487
1874.21	4.56537
1874.36	-0.278137
1874.51	5.9205
1874.66	4.57144
1874.8	13.9066
1874.95	6.28394
1875.1	6.5224
1875.25	3.55212
1875.4	12.8896
1875.55	7.37778
1875.7	6.52628
1875.84	7.14307
1875.99	2.84744
1876.14	4.22052
1876.29	3.3378
1876.44	-1.82214
1876.59	2.01447
1876.74	0.945892
1876.88	7.75061
1877.03	7.47717
1877.18	0.866577
1877.33	2.93469
1877.48	0.7276
1877.63	0.0602417
1877.78	7.80725
1877.92	5.77594
1878.07	13.9774
1878.22	7.21344
1878.37	4.32205
1878.52	11.4231
1878.67	6.18344
1878.82	0.652374
1878.97	4.05725
1879.11	-0.995972
1879.26	3.0322
1879.41	7.77335
1879.56	7.42197
1879.71	5.70541
1879.86	-0.18222
1880	18.7844
1880.15	7.79349
1880.3	10.6581
1880.45	10.4626
1880.6	7.48645
1880.75	4.77115
1880.9	3.18436
1881.04	-2.82626
1881.19	6.10657
1881.34	6.75076
1881.49	11.9021
1881.64	2.9816
1881.79	4.88623
1881.93	-1.41754
1882.08	-4.12137
1882.23	4.74496
1882.38	4.83273
1882.53	2.38712
1882.68	8.28647
1882.82	6.31247
1882.97	12.293
1883.12	1.9335
1883.27	2.96204
1883.42	3.81595
1883.57	2.4856
1883.71	7.34399
1883.86	5.68079
1884.01	12.1069
1884.16	1.6011
1884.31	7.99295
1884.46	5.54718
1884.61	5.4407
1884.75	9.62967
1884.9	3.88904
1885.05	2.45456
1885.2	8.7554
1885.35	10.7842
1885.49	11.1717
1885.64	-0.0865784
1885.79	10.061
1885.94	3.93512
1886.09	11.1992
1886.24	2.64389
1886.38	4.54694
1886.53	4.65289
1886.68	6.08038
1886.83	3.80704
1886.98	3.85449
1887.12	5.59637
1887.27	7.43881
1887.42	7.60635
1887.57	0.588379
1887.72	3.71579
1887.87	7.54291
1888.01	3.82843
1888.16	4.50385
1888.31	1.75925
1888.46	0.660461
1888.61	5.62057
1888.75	5.60422
1888.9	9.04816
1889.05	7.07623
1889.2	2.01511
1889.35	5.4231
1889.5	8.69058
1889.64	1.47662
1889.79	1.55161
1889.94	4.98508
1890.09	2.18298
1890.23	3.3186
1890.38	12.0554
1890.53	1.57602
1890.68	5.56744
1890.83	3.7865
1890.98	4.64032
1891.12	5.60608
1891.27	4.25882
1891.42	12.4916
1891.57	4.17456
1891.72	4.51718
1891.86	3.17792
1892.01	3.45023
1892.16	9.31589
1892.31	-1.60965
1892.46	3.2583
1892.6	5.17633
1892.75	3.93295
1892.9	3.97659
1893.05	0.547852
1893.2	2.82651
1893.34	4.69879
1893.49	0.807892
1893.64	3.69531
1893.79	8.81299
1893.93	3.90952
1894.08	5.27097
1894.23	1.90005
1894.38	4.48615
1894.53	8.98611
1894.67	-1.45129
1894.82	6.08585
1894.97	8.98096
1895.12	0.774078
1895.27	4.72092
1895.41	2.4519
1895.56	2.04767
1895.71	7.73645
1895.86	4.57629
1896.01	1.97461
1896.15	1.46085
1896.3	2.94189
1896.45	3.73688
1896.6	9.24246
1896.74	3.21851
1896.89	7.3988
1897.04	7.69904
1897.19	12.8036
1897.33	6.78625
1897.48	8.33771
1897.63	7.21924
1897.78	6.25256
1897.93	5.94757
1898.07	6.99628
1898.22	4.84006
1898.37	10.9297
1898.52	7.29492
1898.66	2.29996
1898.81	10.4138
1898.96	-0.90509
1899.11	5.30823
1899.25	3.37448
1899.4	6.29358
1899.55	7.72568
1899.7	5.15677
1899.85	0.402863
1899.99	1.79901
1900.14	-0.279602
1900.29	7.64117
1900.44	6.21591
1900.58	1.20972
1900.73	10.3311
1900.88	2.20612
1901.03	-3.05197
1901.17	4.5575
1901.32	2.85242
1901.47	1.79382
1901.62	-0.487152
1901.76	7.1539
1901.91	-3.10187
1902.06	1.26413
1902.21	4.642
1902.35	10.246
1902.5	13.0679
1902.65	9.70996
1902.8	7.89301
1902.94	-1.09235
1903.09	5.57886
1903.24	1.82632
1903.39	2.32016
1903.54	10.4995
1903.68	2.04559
1903.83	7.76614
1903.98	6.05212
1904.12	6.78796
1904.27	0.439606
1904.42	9.1452
1904.57	-1.9014
1904.71	2.17575
1904.86	-0.47998
1905.01	4.06097
1905.16	10.3034
1905.3	6.57318
1905.45	2.7439
1905.6	4.34586
1905.75	3.46744
1905.89	-0.622925
1906.04	4.93192
1906.19	12.5635
1906.34	0.03302
1906.48	2.37888
1906.63	7.04071
1906.78	3.54419
1906.92	8.25284
1907.07	2.62927
1907.22	3.95996
1907.37	-1.35617
1907.51	4.66125
1907.66	5.72757
1907.81	5.10153
1907.96	12.459
1908.1	-0.361389
1908.25	4.19159
1908.4	5.64014
1908.54	6.62228
1908.69	10.5877
1908.84	-0.380432
1908.99	2.42706
1909.13	4.00107
1909.28	3.22595
1909.43	6.45831
1909.58	7.2868
1909.72	1.1557
1909.87	10.1297
1910.02	3.44595
1910.17	5.12747
1910.31	1.45856
1910.46	8.30087
1910.61	8.09763
1910.75	6.49524
1910.9	5.32822
1911.05	2.86551
1911.19	5.77969
1911.34	7.46448
1911.49	4.79953
1911.64	7.31259
1911.78	1.81744
1911.93	2.65131
1912.08	6.72745
1912.23	11.127
1912.37	6.77969
1912.52	4.21875
1912.67	6.83658
1912.81	4.98862
1912.96	5.18021
1913.11	6.11099
1913.25	4.40704
1913.4	18.3511
1913.55	5.33282
1913.7	0.164154
1913.84	10.5102
1913.99	1.8396
1914.14	1.60077
1914.28	1.70786
1914.43	3.45435
1914.58	7.82346
1914.73	3.78342
1914.87	6.96542
1915.02	8.58365
1915.17	6.26083
1915.31	-1.38504
1915.46	9.0014
1915.61	8.10156
1915.75	5.53714
1915.9	5.871
1916.05	7.86032
1916.19	2.22806
1916.34	4.33264
1916.49	10.6418
1916.64	5.63913
1916.78	4.22076
1916.93	6.46793
1917.08	6.49277
1917.22	11.061
1917.37	3.8912
1917.52	4.14243
1917.66	10.2467
1917.81	9.10666
1917.96	-0.985687
1918.1	5.47348
1918.25	3.42941
1918.4	7.15378
1918.54	2.23093
1918.69	6.53287
1918.84	5.46075
1918.99	3.44095
1919.13	7.78616
1919.28	7.7326
1919.43	8.11331
1919.57	6.30557
1919.72	6.40668
1919.87	4.64566
1920.01	7.16006
1920.16	-0.730133
1920.31	5.28809
1920.45	3.50201
1920.6	6.2084
1920.75	7.01221
1920.89	5.96863
1921.04	5.75229
1921.19	0.950562
1921.33	8.56076
1921.48	4.42273
1921.63	7.69174
1921.77	8.51608
1921.92	5.88889
1922.07	4.44562
1922.21	6.35263
1922.36	7.96161
1922.51	5.62085
1922.65	4.76379
1922.8	6.75009
1922.95	4.49661
1923.09	6.7164
1923.24	8.202
1923.39	5.79114
1923.53	6.6546
1923.68	5.62677
1923.83	5.93915
1923.97	9.4238
1924.12	7.75827
1924.27	8.9855
1924.41	7.89575
1924.56	5.9559
1924.71	4.10971
1924.85	3.9346
1925	2.32297
1925.15	5.52075
1925.29	4.69037
1925.44	7.13232
1925.59	7.0849
1925.73	3.64453
1925.88	4.41925
1926.03	5.25848
1926.17	5.99307
1926.32	8.43326
1926.46	8.11197
1926.61	9.82895
1926.76	8.57419
1926.9	9.43698
1927.05	5.54703
1927.2	7.24005
1927.34	5.20016
1927.49	4.56235
1927.64	10.9329
1927.78	6.19266
1927.93	1.87933
1928.08	2.14865
1928.22	3.86002
1928.37	7.5141
1928.52	7.11337
1928.66	6.96722
1928.81	6.25839
1928.95	4.55612
1929.1	8.646
1929.25	7.16156
1929.39	5.11386
1929.54	2.53149
1929.69	4.16937
1929.83	6.00436
1929.98	10.3894
1930.05	14.3236
1930.19	4.26276
1930.34	2.90247
1930.49	8.0491
1930.64	8.14075
1930.79	6.92197
1930.94	5.68378
1931.09	4.1315
1931.24	2.8219
1931.39	10.4708
1931.53	7.00208
1931.68	-1.03336
1931.83	6.41074
1931.98	4.65027
1932.13	6.41122
1932.28	9.11151
1932.43	2.7522
1932.57	7.53906
1932.72	4.66965
1932.87	3.86099
1933.02	6.59787
1933.17	3.0119
1933.32	4.46893
1933.47	7.65234
1933.62	8.90045
1933.76	6.96097
1933.91	6.82849
1934.06	5.86786
1934.21	6.48117
1934.36	4.17203
1934.51	5.32709
1934.66	10.3397
1934.81	3.68436
1934.95	9.75446
1935.1	8.53366
1935.25	6.2803
1935.4	5.2085
1935.55	7.47552
1935.7	10.0131
1935.85	6.64838
1935.99	5.46994
1936.14	7.64166
1936.29	7.59738
1936.44	5.04221
1936.59	4.12918
1936.74	5.2121
1936.89	7.90988
1937.03	1.89679
1937.18	6.48944
1937.33	2.40118
1937.48	10.7114
1937.63	8.84131
1937.78	6.0126
1937.93	1.16879
1938.08	9.43698
1938.22	3.48846
1938.37	7.76743
1938.52	1.23886
1938.67	26.1692
1938.82	5.11432
1938.97	3.35806
1939.12	2.71506
1939.26	4.35651
1939.41	7.36133
1939.56	12.669
1939.71	0.980286
1939.86	5.54474
1940.01	3.73682
1940.15	4.2778
1940.3	6.26306
1940.45	8.7666
1940.6	7.75754
1940.75	14.4552
1940.9	5.37045
1941.04	1.6124
1941.19	2.95444
1941.34	2.42957
1941.49	3.07391
1941.64	7.15762
1941.79	10.6114
1941.93	12.6446
1942.08	7.29092
1942.23	3.21558
1942.38	2.09772
1942.53	4.88544
1942.68	12.8044
1942.82	8.11786
1942.97	7.11502
1943.12	7.05515
1943.27	12.9667
1943.42	7.2085
1943.57	12.4651
1943.71	14.6501
1943.86	4.86972
1944.01	13.2087
1944.16	6.67426
1944.31	7.49997
1944.46	8.49469
1944.6	7.65936
1944.75	3.42633
1944.9	10.5831
1945.05	3.49991
1945.2	3.51682
1945.35	6.34882
1945.49	9.93283
1945.64	8.01743
1945.79	10.8613
1945.94	4.85104
1946.09	7.52222
1946.23	6.97198
1946.38	-0.659912
1946.53	8.33524
1946.68	7.52368
1946.83	6.69928
1946.98	5.77905
1947.12	8.85944
1947.27	6.957
1947.42	8.52597
1947.57	3.36072
1947.72	6.51077
1947.86	7.39478
1948.01	4.60681
1948.16	8.92911
1948.31	9.73639
1948.46	8.47839
1948.61	9.80222
1948.75	5.78693
1948.9	4.82397
1949.05	7.23743
1949.2	1.27045
1949.35	2.94891
1949.49	9.73422
1949.64	3.55045
1949.79	5.59198
1949.94	6.16144
1950.09	2.27902
1950.23	4.60318
1950.38	3.04398
1950.53	7.10928
1950.68	11.428
1950.83	7.86929
1950.97	10.5565
1951.12	6.68948
1951.27	2.52386
1951.42	4.2504
1951.57	2.17206
1951.71	3.62509
1951.86	9.35898
1952.01	5.46527
1952.16	6.32422
1952.31	8.84174
1952.45	2.3945
1952.6	2.8739
1952.75	6.89029
1952.9	6.47964
1953.05	8.45602
1953.19	6.18375
1953.34	3.65372
1953.49	5.79669
1953.64	4.13895
1953.79	8.58929
1953.93	0.700714
1954.08	12.0213
1954.23	5.6655
1954.38	10.3508
1954.52	11.4466
1954.67	4.89694
1954.82	2.97397
1954.97	13.5842
1955.12	4.36011
1955.26	6.31396
1955.41	1.36511
1955.56	7.64413
1955.71	11.2256
1955.85	4.49597
1956	9.43979
1956.15	5.49481
1956.3	6.18073
1956.45	4.17798
1956.59	4.40479
1956.74	11.4241
1956.89	7.72604
1957.04	7.75235
1957.18	0.889679
1957.33	4.07892
1957.48	-0.655853
1957.63	14.063
1957.78	5.64658
1957.92	5.26611
1958.07	5.20358
1958.22	6.04929
1958.37	7.90424
1958.51	4.45624
1958.66	1.47733
1958.81	3.89597
1958.96	8.24652
1959.1	7.38715
1959.25	1.74097
1959.4	10.1136
1959.55	5.03143
1959.7	4.57208
1959.84	10.8751
1959.99	6.14627
1960.14	1.01218
1960.29	3.70529
1960.43	6.26642
1960.58	6.8197
1960.73	6.01184
1960.88	6.54861
1961.02	6.02521
1961.17	0.78064
1961.32	14.2769
1961.47	6.94977
1961.61	6.96713
1961.76	-1.03464
1961.91	13.4412
1962.06	7.50381
1962.2	4.78329
1962.35	9.44263
1962.5	6.37802
1962.65	11.3765
1962.79	3.32608
1962.94	1.43896
1963.09	4.14456
1963.24	5.39984
1963.38	13.4102
1963.53	0.640686
1963.68	6.97363
1963.83	23.8467
1963.97	3.70804
1964.12	9.96368
1964.27	6.05707
1964.42	6.32071
1964.56	3.72131
1964.71	13.3616
1964.86	0.601257
1965.01	3.15189
1965.15	14.1805
1965.3	13.0817
1965.45	1.8663
1965.6	1.7728
1965.74	5.81772
1965.89	8.66348
1966.04	8.73233
1966.19	6.07758
1966.33	4.46097
1966.48	15.6828
1966.63	3.15704
1966.77	6.0538
1966.92	5.13168
1967.07	4.15622
1967.22	6.02457
1967.36	9.63116
1967.51	11.5142
1967.66	11.1108
1967.81	8.5173
1967.95	10.4451
1968.1	7.28745
1968.25	8.97702
1968.39	4.87808
1968.54	3.77841
1968.69	7.32727
1968.84	4.15945
1968.98	9.78763
1969.13	6.8306
1969.28	1.96991
1969.43	2.9783
1969.57	3.27594
1969.72	6.88885
1969.87	4.74304
1970.01	6.13022
1970.16	1.26746
1970.31	4.67285
1970.46	10.2625
1970.6	5.12521
1970.75	2.70441
1970.9	4.36655
1971.04	11.4737
1971.19	1.52164
1971.34	0.264923
1971.49	6.25775
1971.63	6.65439
1971.78	13.3629
1971.93	7.57559
1972.07	2.31387
1972.22	1.64285
1972.37	0.921265
1972.52	4.8876
1972.66	2.06522
1972.81	18.602
1972.96	2.26956
1973.1	6.4935
1973.25	5.42688
1973.4	-0.921478
1973.55	2.7326
1973.69	7.19983
1973.84	3.10077
1973.99	3.15625
1974.13	6.43665
1974.28	-2.90082
1974.43	2.03824
1974.57	3.22379
1974.72	2.70959
1974.87	3.20868
1975.02	2.92404
1975.16	5.62039
1975.31	1.74133
1975.46	2.68716
1975.6	3.78073
1975.75	0.0576782
1975.9	6.48642
1976.04	6.04718
1976.19	9.94724
1976.34	9.52829
1976.49	5.94476
1976.63	11.0464
1976.78	2.19623
1976.93	6.18771
1977.07	9.70505
1977.22	4.62274
1977.37	11.6628
1977.51	7.11655
1977.66	8.3566
1977.81	9.51041
1977.95	5.99298
1978.1	4.46844
1978.25	5.9213
1978.39	1.67487
1978.54	2.21426
1978.69	6.03778
1978.84	4.9024
1978.98	3.41846
1979.13	7.6077
1979.28	5.04684
1979.42	-2.20248
1979.57	3.66599
1979.72	1.76337
1979.86	5.13492
1980.01	9.33893
1980.16	4.3222
1980.3	3.57758
1980.45	9.93332
1980.6	11.1789
1980.74	5.24203
1980.89	23.3927
1981.04	3.66235
1981.18	4.21735
1981.33	1.53625
1981.48	7.84875
1981.62	3.2496
1981.77	10.3766
1981.92	3.38403
1982.06	3.43744
1982.21	5.46158
1982.36	7.94876
1982.5	4.14905
1982.65	1.07233
1982.8	2.57971
1982.94	4.32959
1983.09	1.59634
1983.24	4.3367
1983.38	3.62332
1983.53	4.25616
1983.68	1.74234
1983.82	1.65964
1983.97	3.35696
1984.12	-1.9606
1984.26	3.61737
1984.41	-2.63361
1984.56	3.70798
1984.7	2.32748
1984.85	2.36993
1985	3.67618
1985.14	8.36276
1985.29	2.9032
1985.44	6.4761
1985.58	4.54871
1985.73	2.25485
1985.88	3.3252
1986.02	4.43115
1986.17	8.09888
1986.32	9.07181
1986.46	2.935
1986.61	7.07285
1986.75	7.61026
1986.9	5.4892
1987.05	1.54352
1987.2	6.36887
1987.34	2.21231
1987.49	5.6138
1987.63	1.17224
1987.78	5.2265
1987.93	3.4845
1988.07	3.60675
1988.22	2.75323
1988.37	2.26773
1988.51	1.55777
1988.66	7.41678
1988.81	-0.906097
1988.95	3.51709
1989.1	3.81497
1989.24	11.549
1989.39	3.52246
1989.54	1.60184
1989.68	3.28931
1989.83	1.52789
1989.98	3.34177
1990.12	-1.89578
1990.27	4.58926
1990.42	7.65369
1990.56	6.31683
1990.71	2.73676
1990.85	4.28104
1991	6.46243
1991.15	2.18918
1991.29	7.59808
1991.44	9.89233
1991.59	1.8913
1991.73	1.44809
1991.88	8.16443
1992.02	2.76682
1992.17	3.17093
1992.32	9.25964
1992.46	-0.0718079
1992.61	9.98239
1992.76	4.75107
1992.9	5.88461
1993.05	9.05496
1993.19	3.4155
1993.34	1.95032
1993.49	3.65536
1993.63	2.23526
1993.78	-0.37149
1993.93	4.46115
1994.07	4.02756
1994.22	3.03674
1994.36	1.54208
1994.51	0.101013
1994.66	6.77615
1994.8	3.95837
1994.95	5.29861
1995.1	4.07431
1995.24	3.5994
1995.39	1.69736
1995.53	-0.246216
1995.68	-5.08783
1995.83	3.82245
1995.97	1.7338
1996.12	5.23108
1996.27	4.7659
1996.41	-0.434143
1996.56	2.11813
1996.7	1.95743
1996.85	1.88062
1996.99	-2.54187
1997.14	8.2475
1997.29	1.10309
1997.43	10.6546
1997.58	6.72577
1997.73	6.67621
1997.87	-0.70163
1998.02	-0.547241
1998.16	-2.12222
1998.31	4.96585
1998.46	5.74414
1998.6	-0.340881
1998.75	7.15512
1998.89	1.79352
1999.04	-2.31369
1999.18	1.95248
1999.33	0.990753
1999.48	4.89987
1999.62	0.700256
1999.77	1.86108
1999.92	-0.864716
2000.06	-1.54138
2000.21	10.2034
2000.35	4.06326
2000.5	-1.91342
2000.64	1.2634
2000.79	4.23001
2000.94	6.42084
2001.08	-5.00668
2001.23	9.83807
2001.37	8.57019
2001.52	5.15509
2001.67	4.25439
2001.81	8.50827
2001.96	0.849152
2002.1	6.27118
2002.25	5.60306
2002.4	5.25323
2002.54	-0.161072
2002.69	4.76718
2002.83	-1.18063
2002.98	-3.76556
2003.12	0.0923767
2003.27	3.12296
2003.42	8.50845
2003.56	1.24518
2003.71	5.90927
2003.85	1.31763
2004	1.29449
2004.14	-1.69144
2004.29	-3.90552
2004.44	4.45575
2004.58	2.50687
2004.73	2.00104
2004.87	4.57242
2005.02	4.53323
2005.16	3.10181
2005.31	2.99625
2005.46	4.35992
2005.6	-2.961
2005.75	3.14551
2005.89	-4.94406
2006.04	10.4001
2006.19	3.20438
2006.33	0.0702515
2006.48	2.32697
2006.62	1.52435
2006.77	-1.73581
2006.91	0.875244
2007.06	2.77155
2007.21	-3.68979
2007.35	-1.89264
2007.5	-5.03751
2007.64	5.09549
2007.79	4.7554
2007.93	5.42902
2008.08	1.69016
2008.22	4.01505
2008.37	5.98779
2008.52	2.93777
2008.66	0.908386
2008.81	2.73965
2008.95	0.154297
2009.1	-0.245392
2009.24	7.10287
2009.39	-3.31805
2009.53	-1.47876
2009.68	9.84555
2009.83	1.85498
2009.97	4.20914
2010.12	4.69016
2010.26	0.790039
2010.41	0.247192
2010.55	3.6785
2010.7	-1.2525
2010.84	3.17249
2010.99	1.49054
2011.13	-2.55859
2011.28	1.86813
2011.43	-0.452454
2011.57	-0.640381
2011.72	-0.270721
2011.86	-3.8508
2012.01	-1.56534
2012.15	-0.508362
2012.3	-3.69604
2012.44	4.79764
2012.59	5.09952
2012.73	2.40326
2012.88	0.914215
2013.03	-1.78876
2013.17	-1.69128
2013.32	-3.39066
2013.46	-2.20517
2013.61	9.7543
2013.75	0.246063
2013.9	0.0751953
2014.04	6.23947
2014.19	4.38107
2014.33	4.41028
2014.48	0.0933838
2014.62	3.52832
2014.77	6.00583
2014.91	0.0535889
2015.06	-1.60046
2015.21	2.90796
2015.35	2.90857
2015.5	0.624359
2015.64	2.03308
2015.79	2.47952
2015.93	2.17017
2016.08	-2.78915
2016.22	2.56741
2016.37	-4.20499
2016.51	1.81332
2016.66	4.15918
2016.8	0.410675
2016.95	-1.74805
2017.09	-0.540833
2017.24	-3.48209
2017.38	1.04822
2017.53	3.21115
2017.67	3.41534
2017.82	0.0205994
2017.96	3.5831
2018.11	-1.8786
2018.26	-0.457397
2018.4	2.64612
2018.55	2.69632
2018.69	-0.290558
2018.84	4.35806
2018.98	5.48474
2019.13	2.93481
2019.27	-3.30322
2019.42	-1.95883
2019.56	8.34192
2019.71	-4.1178
2019.85	-0.623932
2020	-1.4444
2020.14	-1.27423
2020.29	-0.438019
2020.43	-3.54575
2020.58	-0.238434
2020.72	4.0947
2020.87	2.67444
2021.01	3.30164
2021.16	4.0538
2021.3	-5.76672
2021.45	-2.6261
2021.59	2.84531
2021.74	-3.04193
2021.88	2.39569
2022.03	-3.01083
2022.17	-1.95801
2022.32	-0.31189
2022.46	2.39996
2022.61	-0.459229
2022.75	0.0480042
2022.9	-4.55362
2023.04	1.55713
2023.19	-4.26285
2023.33	3.82504
2023.48	0.241486
2023.62	0.152496
2023.77	1.63052
2023.91	4.03912
2024.06	8.1532
2024.2	-2.21851
2024.35	-2.49063
2024.49	-0.928253
2024.64	-3.13696
2024.78	5.31998
2024.93	-2.54059
2025.07	0.762573
2025.22	1.04242
2025.36	2.4696
2025.51	1.78485
2025.65	1.72452
2025.8	-1.72165
2025.94	1.65826
2026.09	-0.248383
2026.23	-1.63959
2026.38	1.3974
2026.52	0.0614014
2026.67	3.88254
2026.81	0.83136
2026.95	2.2464
2027.1	2.88483
2027.24	-3.91837
2027.39	-1.2869
2027.53	4.2587
2027.68	5.54858
2027.82	2.43756
2027.97	-4.89941
2028.11	0.639984
2028.26	5.30923
2028.4	-2.57697
2028.55	3.87012
2028.69	-2.67343
2028.84	2.92865
2028.98	1.30414
2029.13	6.91208
2029.27	5.93765
2029.42	-2.89401
2029.56	-0.229034
2029.71	3.69836
2029.85	4.02057
2029.99	-3.10669
2030.14	-3.86133
2030.28	5.43231
2030.43	-1.18768
2030.57	0.837524
2030.72	0.360535
2030.86	3.79846
2031.01	2.30328
2031.15	6.09659
2031.3	2.14175
2031.44	-0.414276
2031.59	-0.283203
2031.73	-2.03897
2031.87	-2.71973
2032.02	0.394714
2032.16	0.00415039
2032.31	-1.3855
2032.45	-3.11356
2032.6	-1.73068
2032.74	-2.65927
2032.89	0.137482
2033.03	1.90222
2033.18	-0.566223
2033.32	-1.22693
2033.47	2.30508
2033.61	-1.94492
2033.75	-1.70337
2033.9	2.95807
2034.04	-1.28867
2034.19	1.04498
2034.33	0.346039
2034.48	-0.662659
2034.62	1.68707
2034.77	-1.54846
2034.91	-1.76166
2035.05	3.50888
2035.2	3.54208
2035.34	7.47903
2035.49	-0.970612
2035.63	1.69061
2035.78	-1.20166
2035.92	4.91507
2036.07	2.62729
2036.21	-0.185333
2036.35	1.74512
2036.5	-2.01224
2036.64	-8.23376
2036.79	0.905579
2036.93	1.50174
2037.08	-1.87415
2037.22	6.58963
2037.37	-2.46945
2037.51	0.212311
2037.65	1.94315
2037.8	4.35486
2037.94	1.55911
2038.09	0.2966
2038.23	-3.21381
2038.37	-4.36099
2038.52	0.89389
2038.66	1.2681
2038.81	2.53073
2038.95	-1.51331
2039.1	-0.558716
2039.24	-1.73605
2039.39	-1.41409
2039.53	1.27621
2039.67	6.17313
2039.82	-1.77835
2039.96	-7.56564
2040.11	4.60764
2040.25	3.46405
2040.39	0.853577
2040.54	-3.08859
2040.68	2.23419
2040.83	6.3006
2040.97	-2.44073
2041.12	2.59616
2041.26	-0.255493
2041.41	0.5867
2041.55	22.5365
2041.69	-0.976471
2041.84	1.17563
2041.98	-3.38629
2042.13	-1.01678
2042.27	0.0180054
2042.41	-0.702057
2042.56	-3.55533
2042.7	-3.04755
2042.85	-2.83847
2042.99	-0.44455
2043.13	-1.61304
2043.28	2.50568
2043.42	4.13608
2043.57	2.99374
2043.71	0.473785
2043.86	2.78702
2044	-0.98584
2044.14	3.88965
2044.29	-1.1113
2044.43	0.325165
2044.58	-0.431549
2044.72	-0.507935
2044.86	-6.80936
2045.01	7.14182
2045.15	-6.42688
2045.3	5.79306
2045.44	0.854431
2045.58	-0.23056
2045.73	-0.983734
2045.87	-0.122833
2046.02	0.630768
2046.16	5.25107
2046.3	7.3493
2046.45	4.58466
2046.59	7.69653
2046.74	1.12073
2046.88	4.228
2047.02	3.32175
2047.17	4.36404
2047.31	-2.67743
2047.46	4.22925
2047.6	1.33203
2047.74	1.29593
2047.89	2.14984
2048.03	-0.0128174
2048.17	-3.77957
2048.32	3.89398
2048.46	0.438171
2048.61	4.0947
2048.75	-3.97394
2048.89	3.20795
2049.04	12.1666
2049.18	0.0953064
2049.33	-1.22971
2049.47	-2.26794
2049.61	2.96533
2049.76	2.73764
2049.9	1.39191
2050.05	-2.43521
2050.19	1.28464
2050.33	-3.80807
2050.48	2.71573
2050.62	0.231995
2050.76	2.65704
2050.91	-0.567047
2051.05	0.711548
2051.2	-4.33514
2051.34	1.16144
2051.48	0.0187683
2051.63	4.83121
2051.77	0.567474
2051.92	4.40649
2052.06	-1.10074
2052.2	-2.12454
2052.35	-0.987762
2052.49	-2.22226
2052.63	-0.765015
2052.78	-1.21899
2052.92	-0.857391
2053.06	2.65704
2053.21	0.643372
2053.35	3.99881
2053.49	-1.34863
2053.64	-7.51706
2053.78	1.83911
2053.93	-2.1106
2054.07	-1.46329
2054.21	-0.772003
2054.36	-3.40842
2054.5	0.092865
2054.64	-0.185669
2054.79	-1.68631
2054.93	4.53348
2055.08	-0.638489
2055.22	2.02994
2055.36	4.85638
2055.51	4.1037
2055.65	-4.90027
2055.79	-1.74411
2055.94	-0.268768
2056.08	-1.12222
2056.22	-0.650604
2056.37	2.15427
2056.51	-0.327606
2056.65	-0.743866
2056.8	-1.27124
2056.94	-4.10095
2057.08	2.70047
2057.23	-1.1684
2057.37	0.922333
2057.52	2.82187
2057.66	-1.73755
2057.8	1.03778
2057.95	3.97922
2058.09	-2.7576
2058.23	4.49237
2058.38	-0.601624
2058.52	1.41528
2058.66	0.0700378
2058.81	0.297089
2058.95	0.275879
2059.09	5.18887
2059.24	-0.189087
2059.38	2.16992
2059.52	-1.30334
2059.67	4.91019
2059.81	-1.17044
2059.96	4.28937
2060.1	4.07562
2060.24	2.86472
2060.39	0.688568
2060.53	6.89716
2060.67	1.71677
2060.81	1.0127
2060.96	-0.224609
2061.1	5.35394
2061.24	2.69357
2061.39	1.26889
2061.53	2.07678
2061.67	3.53467
2061.82	1.89203
2061.96	-5.37268
2062.1	-0.413269
2062.25	4.93921
2062.39	-4.12735
2062.54	3.12509
2062.68	-0.926636
2062.82	2.34198
2062.97	5.23666
2063.11	3.59995
2063.25	-1.13907
2063.4	1.79471
2063.54	5.63501
2063.68	4.16962
2063.83	-3.22238
2063.97	-2.13434
2064.11	6.99078
2064.25	0.25592
2064.4	2.76752
2064.54	5.89258
2064.68	5.99554
2064.83	-0.163147
2064.97	0.040863
2065.11	0.811676
2065.26	5.49771
2065.4	-2.14545
2065.54	6.23795
2065.69	-1.85788
2065.83	0.748199
2065.97	-3.61673
2066.12	-0.173248
2066.26	0.313965
2066.4	0.975555
2066.54	6.99649
2066.69	1.58612
2066.83	5.45938
2066.97	-1.55066
2067.12	0.920013
2067.26	2.90771
2067.4	11.3156
2067.55	1.13773
2067.69	0.069519
2067.83	7.4201
2067.98	-4.52612
2068.12	0.898499
2068.26	7.8483
2068.41	3.52213
2068.55	0.195709
2068.69	-0.0588989
2068.83	-3.42563
2068.98	0.114227
2069.12	-0.0533447
2069.26	2.4881
2069.41	6.75879
2069.55	-1.89108
2069.69	-1.96268
2069.84	0.327515
2069.98	-4.12717
2070.12	1.60446
2070.26	0.743866
2070.41	1.71307
2070.55	1.96063
2070.69	3.01367
2070.84	3.53769
2070.98	1.93231
2071.12	-1.60257
2071.27	2.58792
2071.41	-0.161285
2071.55	-4.77292
2071.69	0.343079
2071.84	3.66055
2071.98	4.31287
2072.12	4.76614
2072.27	-1.55899
2072.41	-0.685333
2072.55	-2.71646
2072.69	0.916718
2072.84	6.81451
2072.98	3.44891
2073.12	-1.07159
2073.27	1.88733
2073.41	-1.29279
2073.55	-2.53961
2073.69	6.52155
2073.84	-0.143524
2073.98	-2.43338
2074.12	4.95126
2074.27	2.48239
2074.41	1.01602
2074.55	4.99127
2074.69	5.1355
2074.84	-3.37155
2074.98	-2.93524
2075.12	-0.897247
2075.26	-4.66229
2075.41	5.18326
2075.55	-0.625977
2075.69	2.39966
2075.84	-3.43393
2075.98	-4.4899
2076.12	6.05972
2076.26	-1.19995
2076.41	2.90033
2076.55	-1.01578
2076.69	1.90302
2076.83	-1.68057
2076.98	-1.85788
2077.12	2.88391
2077.26	-4.79105
2077.41	-1.61975
2077.55	3.17828
2077.69	2.36826
2077.83	1.06772
2077.98	3.16968
2078.12	1.85205
2078.26	3.42621
2078.4	-1.00165
2078.55	-0.0357666
2078.69	-2.85443
2078.83	1.69537
2078.97	-0.975464
2079.12	3.41812
2079.26	2.30331
2079.4	6.37341
2079.54	-1.59985
2079.69	4.00983
2079.83	-0.576691
2079.97	-3.5231
2080.11	5.65527
2080.26	3.46118
2080.4	0.466095
2080.54	3.46564
2080.68	-5.56934
2080.83	-2.33035
2080.97	-1.54956
2081.11	10.8061
2081.25	3.18887
2081.4	3.5639
2081.54	10.4509
2081.68	1.20401
2081.82	9.26648
2081.97	1.81833
2082.11	4.15128
2082.25	-0.160583
2082.4	6.0246
2082.54	-0.117279
2082.68	2.77112
2082.82	-0.397034
2082.96	-1.03101
2083.11	-2.3291
2083.25	-0.584503
2083.39	6.74802
2083.53	4.4787
2083.68	4.86914
2083.82	7.50858
2083.96	-2.60855
2084.1	-2.56894
2084.25	4.05521
2084.39	7.7951
2084.53	4.97372
2084.67	9.50687
2084.82	-1.72659
2084.96	-1.20416
2085.1	4.95438
2085.24	0.0183716
2085.39	-1.94766
2085.53	-1.37872
2085.67	1.29901
2085.81	4.05045
2085.95	1.39258
2086.1	0.325623
2086.24	1.76776
2086.38	2.10693
2086.52	6.7948
2086.67	-0.663849
2086.81	0.317383
2086.95	-0.0903015
2087.09	4.24271
2087.23	8.3829
2087.38	4.61899
2087.52	2.62558
2087.66	-2.5419
2087.8	3.83713
2087.95	6.54886
2088.09	2.10217
2088.23	3.3335
2088.37	5.91559
2088.51	3.04974
2088.66	-1.11581
2088.8	6.4949
2088.94	9.27005
2089.08	0.733063
2089.23	-1.46024
2089.37	4.86969
2089.51	2.97977
2089.65	2.88422
2089.79	4.63123
2089.94	7.01984
2090.08	3.50952
2090.22	1.67935
2090.36	5.1933
2090.5	2.76215
2090.65	-2.82065
2090.79	3.11688
2090.93	8.82761
2091.07	-5.50635
2091.22	7.69333
2091.36	-2.19226
2091.5	5.4465
2091.64	2.74808
2091.78	1.28638
2091.93	4.65158
2092.07	2.37506
2092.21	-0.066803
2092.35	1.33765
2092.49	-2.12854
2092.64	3.50562
2092.78	4.8934
2092.92	3.14911
2093.06	4.33511
2093.2	1.47678
2093.34	-2.03821
2093.49	3.69128
2093.63	3.34042
2093.77	6.44147
2093.91	3.43073
2094.05	-0.599396
2094.2	0.930847
2094.34	-1.14905
2094.48	-0.966064
2094.62	3.44958
2094.76	-0.179413
2094.91	2.94485
2095.05	5.59238
2095.19	0.925598
2095.33	0.305328
2095.47	0.173798
2095.62	7.69193
2095.76	5.26501
2095.9	3.33398
2096.04	7.59781
2096.18	2.71112
2096.33	3.89496
2096.47	3.17575
2096.61	3.22659
2096.75	2.43814
2096.89	-2.92096
2097.03	-1.68073
2097.18	3.47705
2097.32	4.29623
2097.46	1.56638
2097.6	15.6847
2097.74	0.721436
2097.89	0.870483
2098.03	-0.183502
2098.17	0.149384
2098.31	3.21207
2098.45	-0.177856
2098.59	3.06003
2098.74	4.1745
2098.88	-0.597168
2099.02	-0.82016
2099.16	4.23285
2099.3	6.3725
2099.45	4.26114
2099.59	-1.12753
2099.73	-0.24295
2099.87	-0.236328
2100.01	6.97964
2100.15	2.40948
2100.3	4.90878
2100.44	2.86392
2100.58	2.02597
2100.72	4.83908
2100.86	-1.12549
2101	0.489471
2101.15	6.26898
2101.29	3.89798
2101.43	7.62222
2101.57	2.16727
2101.71	-1.96445
2101.85	5.42065
2102	-1.004
2102.14	5.022
2102.28	7.48337
2102.42	3.62415
2102.56	7.4715
2102.7	12.8049
2102.84	18.2311
2102.99	6.33084
2103.13	6.91696
2103.27	-0.740784
2103.41	3.73822
2103.55	7.59613
2103.69	1.10187
2103.84	-3.67871
2103.98	5.38474
2104.12	3.76794
2104.26	-0.359253
2104.4	3.22668
2104.54	4.4649
2104.69	7.26022
2104.83	-0.977386
2104.97	1.23737
2105.11	5.07538
2105.25	-0.0228577
2105.39	2.83905
2105.53	0.58606
2105.67	0.122772
2105.82	4.96545
2105.96	2.09064
2106.1	-0.998444
2106.24	2.77304
2106.38	0.0487671
2106.52	7.98215
2106.67	7.67929
2106.81	4.34454
2106.95	0.0840759
2107.09	5.51953
2107.23	1.0936
2107.37	7.95978
2107.51	1.146
2107.66	-1.60229
2107.8	13.2336
2107.94	4.8783
2108.08	1.95837
2108.22	6.62976
2108.36	-2.00629
2108.5	8.2366
2108.64	4.69107
2108.79	4.14233
2108.93	11.2465
2109.07	6.22784
2109.21	9.38379
2109.35	-0.456177
2109.49	6.79752
2109.63	1.24493
2109.78	6.18491
2109.92	2.60828
2110.06	4.65598
2110.2	6.1344
2110.34	6.04977
2110.48	3.03745
2110.62	5.07733
2110.76	1.10928
2110.9	2.08853
2111.05	7.79675
2111.19	4.97137
2111.33	5.38507
2111.47	6.84515
2111.61	9.33975
2111.75	3.5401
2111.89	5.9379
2112.03	11.3996
2112.18	3.62814
2112.32	5.043
2112.46	4.74762
2112.6	3.98578
2112.74	8.55884
2112.88	0.977478
2113.02	3.80438
2113.16	-2.88614
2113.31	3.11172
2113.45	8.53781
2113.59	5.2709
2113.73	-0.306244
2113.87	-3.72568
2114.01	5.0809
2114.15	5.39746
2114.29	5.69315
2114.43	3.10242
2114.57	1.42221
2114.72	-2.92413
2114.86	4.10794
2115	13.1142
2115.14	6.00943
2115.28	6.0596
2115.42	5.52753
2115.56	5.51828
2115.7	-1.21494
2115.84	5.93152
2115.98	5.3847
2116.13	2.64911
2116.27	0.295807
2116.41	6.26022
2116.55	0
2116.69	4.16132
2116.83	3.80753
2116.97	2.20892
2117.11	7.46341
2117.25	4.38623
2117.4	7.7832
2117.54	4.51382
2117.68	-1.54855
2117.82	7.67194
2117.96	0.59494
2118.1	5.34198
2118.24	5.47598
2118.38	1.08447
2118.52	3.36261
2118.66	0.240875
2118.8	0.824799
2118.95	-0.0355835
2119.09	1.47791
2119.23	3.32608
2119.37	5.89801
2119.51	3.85553
2119.65	-0.307861
2119.79	1.95529
2119.93	1.72357
2120.07	10.1184
2120.21	1.70538
2120.35	7.12115
2120.49	13.0479
2120.64	4.75687
2120.78	0.229889
2120.92	7.48544
2121.06	6.69278
2121.2	3.0929
2121.34	-1.08237
2121.48	4.5018
2121.62	-1.1503
2121.76	10.9131
2121.9	3.55707
2122.04	3.84091
2122.18	6.16394
2122.32	1.47147
2122.46	3.84024
2122.61	6.33923
2122.75	4.65717
2122.89	2.92999
2123.03	2.78284
2123.17	7.94022
2123.31	5.26419
2123.45	7.64609
2123.59	5.63495
2123.73	5.57718
2123.87	4.5932
2124.01	4.57922
2124.15	3.67105
2124.29	11.1301
2124.44	-0.715179
2124.58	1.15854
2124.72	3.52823
2124.86	9.12753
2125	8.06973
2125.14	3.49146
2125.28	5.31082
2125.42	7.12192
2125.56	2.04547
2125.7	3.20187
2125.84	2.69064
2125.98	1.22586
2126.12	4.38522
2126.26	4.73676
2126.4	3.98105
2126.54	3.55511
2126.68	5.07916
2126.83	4.81094
2126.97	0.290802
2127.11	8.27344
2127.25	4.89606
2127.39	6.47232
2127.53	11.0772
2127.67	7.00418
2127.81	6.93082
2127.95	11.4221
2128.09	7.49445
2128.23	10.105
2128.37	5.38608
2128.51	-1.24338
2128.65	4.77173
2128.79	6.89767
2128.93	3.83926
2129.07	6.90289
2129.21	12.6466
2129.35	7.93393
2129.49	19.9727
2129.64	6.62408
2129.78	6.63336
2129.92	2.09787
2130.06	3.25974
2130.2	6.02917
2130.34	10.2705
2130.48	8.45752
2130.62	8.46371
2130.76	-0.0978394
2130.9	5.09674
2131.04	6.62302
2131.18	12.3431
2131.32	2.45581
2131.46	2.3335
2131.6	4.37848
2131.74	3.04211
2131.88	4.83142
2132.02	5.4808
2132.16	7.93909
2132.3	5.0571
2132.44	12.7964
2132.58	7.29617
2132.72	9.63239
2132.86	2.00635
2133	7.30386
2133.14	3.62759
2133.28	8.8158
2133.43	6.52136
2133.57	7.23837
2133.7	3.05011
2133.84	3.86859
2133.99	8.25021
2134.13	7.64096
2134.27	10.4577
2134.41	5.13266
2134.55	3.87152
2134.69	2.90808
2134.83	2.26913
2134.97	3.4061
2135.11	1.85654
2135.25	0.921509
2135.39	3.03104
2135.53	2.45486
2135.67	4.32828
2135.81	7.4429
2135.95	4.81104
2136.09	6.71936
2136.23	6.46829
2136.37	7.52148
2136.51	5.92728
2136.65	5.8298
2136.79	4.9841
2136.93	6.4639
2137.07	5.84799
2137.21	3.96799
2137.35	3.26102
2137.49	7.62445
2137.63	9.60431
2137.77	11.5301
2137.91	3.71045
2138.05	6.103
2138.19	9.58218
2138.33	9.35886
2138.47	3.26312
2138.61	2.95865
2138.75	6.16669
2138.89	11.206
2139.03	7.94055
2139.17	5.6828
2139.31	6.08768
2139.45	8.0217
2139.59	7.16019
2139.73	4.0087
2139.87	5.81198
2140.01	4.15298
2140.15	5.06097
2140.29	5.79761
2140.43	7.65302
2140.57	6.88599
2140.71	7.35162
2140.85	4.75482
2140.99	6.54544
2141.13	7.49399
2141.27	7.02676
2141.41	4.21735
2141.55	4.25623
2141.69	4.33902
2141.83	5.31592
2141.97	6.53656
2142.11	4.67056
2142.25	9.86334
2142.39	8.25009
2142.53	5.13153
2142.67	6.49777
2142.81	5.21933
2142.95	6.26187
2143.09	4.65131
2143.23	6.73285
2143.37	7.77615
2143.51	4.51218
2143.65	5.39847
2143.79	8.73502
2143.93	9.69571
2144.07	5.79953
2144.21	4.33868
2144.35	6.56717
2144.49	5.6597
2144.63	4.32275
2144.77	6.71634
2144.91	11.4224
2145.05	1.14883
2145.19	3.21411
2145.33	6.54037
2145.45	7.95245
2145.59	4.26947
2145.73	4.05643
2145.87	8.39404
2146.02	4.89182
2146.16	12.8078
2146.3	2.85696
2146.44	9.0538
2146.58	6.4827
2146.73	2.84738
2146.87	3.4711
2147.01	7.49911
2147.15	8.60718
2147.29	7.18079
2147.44	8.45654
2147.58	7.20374
2147.72	6.96405
2147.86	8.86313
2148.01	10.4968
2148.15	1.39172
2148.29	-0.752106
2148.43	7.3002
2148.57	3.2543
2148.72	5.84088
2148.86	10.1872
2149	7.86844
2149.14	11.8574
2149.29	10.1452
2149.43	2.87051
2149.57	7.78311
2149.71	14.1969
2149.85	7.85846
2150	3.48392
2150.14	8.95697
2150.28	-0.342957
2150.42	7.29181
2150.56	5.49136
2150.71	7.19357
2150.85	5.84747
2150.99	7.00766
2151.13	3.02744
2151.27	2.41241
2151.42	12.7104
2151.56	3.78867
2151.7	13.2018
2151.84	1.10123
2151.98	7.03506
2152.12	4.44223
2152.27	9.90552
2152.41	5.20334
2152.55	4.62387
2152.69	2.86884
2152.84	12.6658
2152.98	4.60825
2153.12	9.77649
2153.26	5.77017
2153.4	8.29199
2153.55	7.3418
2153.69	6.10266
2153.83	3.7948
2153.97	2.91568
2154.11	8.97137
2154.25	8.6814
2154.4	8.81659
2154.54	4.07971
2154.68	22.7383
2154.82	11.88
2154.96	8.22849
2155.11	13.782
2155.25	4.8815
2155.39	5.1474
2155.53	6.92758
2155.67	5.16129
2155.81	3.76633
2155.96	10.608
2156.1	12.3268
2156.24	4.53326
2156.38	12.9681
2156.52	6.62558
2156.67	5.02161
2156.81	9.81635
2156.95	4.04269
2157.09	0.676239
2157.23	11.4669
2157.37	6.53265
2157.52	7.34302
2157.66	7.33405
2157.8	8.12595
2157.94	13.0483
2158.08	2.43954
2158.22	1.62915
2158.37	9.76343
2158.51	1.49115
2158.65	3.8486
2158.79	6.71252
2158.93	11.8394
2159.07	18.7822
2159.22	2.96237
2159.36	12.0053
2159.5	3.47467
2159.64	0.821411
2159.78	7.46017
2159.92	4.70935
2160.07	4.45309
2160.21	9.45874
2160.35	12.0284
2160.49	4.58798
2160.63	6.41959
2160.77	8.55978
2160.92	7.88235
2161.06	5.46796
2161.2	9.09366
2161.34	10.5699
2161.48	6.92877
2161.62	7.31982
2161.77	9.15015
2161.91	5.37363
2162.05	10.1292
2162.19	10.7805
2162.33	2.31497
2162.47	5.98221
2162.61	7.50015
2162.76	5.72375
2162.9	0.16684
2163.04	2.50784
2163.18	0.33667
2163.32	10.2332
2163.46	13.9427
2163.61	9.03894
2163.75	5.15894
2163.89	1.61392
2164.03	1.29108
2164.17	9.7598
2164.31	10.2893
2164.45	6.93402
2164.6	8.15088
2164.74	9.87985
2164.88	4.41891
2165.02	6.73315
2165.16	4.06122
2165.3	3.88287
2165.44	2.80789
2165.59	9.72952
2165.73	5.60321
2165.87	13.4392
2166.01	7.93845
2166.15	6.63727
2166.29	2.38284
2166.43	6.17972
2166.58	8.76093
2166.72	8.99814
2166.86	4.90723
2167	8.94376
2167.14	2.14029
2167.28	9.64584
2167.42	5.87289
2167.56	4.14917
2167.71	4.05508
2167.85	8.99567
2167.99	3.88058
2168.13	2.80606
2168.27	3.9198
2168.41	6.29099
2168.55	8.23764
2168.7	12.2951
2168.84	1.58551
2168.98	4.83075
2169.12	-0.0977478
2169.26	6.16837
2169.4	11.2165
2169.54	7.61328
2169.68	1.53067
2169.82	2.96249
2169.97	2.43927
2170.11	7.91071
2170.25	2.31235
2170.39	14.4075
2170.53	4.84299
2170.67	3.22629
2170.81	1.80399
2170.95	2.65564
2171.1	1.33755
2171.24	11.7505
2171.38	7.57059
2171.52	7.52151
2171.66	5.18088
2171.8	1.5657
2171.94	11.7095
2172.08	2.94662
2172.23	11.1146
2172.37	4.84161
2172.51	13.3117
2172.65	5.48984
2172.79	0.429993
2172.93	4.78259
2173.07	3.77689
2173.21	4.78888
2173.35	0.848053
2173.5	3.90988
2173.64	0.382355
2173.78	6.02246
2173.92	11.162
2174.06	10.1124
2174.2	6.41391
2174.34	12.5182
2174.48	5.6828
2174.62	2.73227
2174.76	0.831909
2174.91	4.07678
2175.05	7.58597
2175.19	2.95041
2175.33	6.33405
2175.47	4.78171
2175.61	4.61023
2175.75	5.88245
2175.89	8.02963
2176.03	5.96454
2176.18	6.61945
2176.32	-1.32178
2176.46	0.891754
2176.6	6.06992
2176.74	5.974
2176.88	2.82141
2177.02	1.5343
2177.16	-0.55127
2177.3	1.81439
2177.44	8.97446
2177.58	3.56223
2177.73	1.19821
2177.87	1.52728
2178.01	8.75964
2178.15	3.31387
2178.29	7.11224
2178.43	7.41357
2178.57	1.26202
2178.71	14.7163
2178.85	6.95627
2178.99	5.31525
2179.13	8.3248
2179.27	3.30405
2179.42	3.43661
2179.56	11.1073
2179.7	3.32822
2179.84	3.25269
2179.98	1.7113
2180.12	5.01895
2180.26	9.80283
2180.4	3.81958
2180.54	7.78476
2180.68	6.21799
2180.82	9.97153
2180.96	5.02429
2181.1	3.77921
2181.25	9.19586
2181.39	2.48068
2181.53	6.49353
2181.67	9.38672
2181.81	6.23688
2181.95	0.856995
2182.09	5.97589
2182.23	6.60928
2182.37	2.3681
2182.51	3.06403
2182.65	-1.42786
2182.79	4.65903
2182.93	5.71625
2183.08	3.87155
2183.22	-0.12207
2183.36	2.8811
2183.5	2.7056
2183.64	0.484009
2183.78	2.51813
2183.92	6.11578
2184.06	4.66617
2184.2	4.76834
2184.34	3.98938
2184.48	5.21185
2184.62	-0.446259
2184.76	2.64124
2184.9	2.71094
2185.04	7.25241
2185.18	4.13617
2185.33	3.93469
2185.47	5.88837
2185.61	2.26923
2185.75	12.0369
2185.89	7.41553
2186.03	2.72348
2186.17	4.21017
2186.31	5.05801
2186.45	7.27728
2186.59	0.674896
2186.73	5.71539
2186.87	10.4096
2187.01	5.65085
2187.15	-4.58905
2187.29	13.2059
2187.43	1.73416
2187.57	0.927002
2187.71	5.19806
2187.85	-0.703125
2188	-0.99762
2188.14	-0.809021
2188.28	-1.95511
2188.42	2.09064
2188.56	1.07278
2188.7	4.85425
2188.84	4.0137
2188.98	2.75287
2189.12	2.13708
2189.26	6.25717
2189.4	7.28693
2189.54	1.86661
2189.68	5.74731
2189.82	-2.43942
2189.96	4.52591
2190.1	-3.25809
2190.24	3.81696
2190.38	4.87073
2190.52	3.43231
2190.66	0.286133
2190.8	1.0379
2190.94	6.39319
2191.08	-3.35056
2191.22	7.17502
2191.36	3.44666
2191.51	-3.77783
2191.65	4.10956
2191.79	-2.94171
2191.93	-1.08585
2192.07	-2.01389
2192.21	3.74768
2192.35	3.94388
2192.49	-1.23929
2192.63	4.01611
2192.77	0.103668
2192.91	-2.42468
2193.05	-0.518738
2193.19	-1.74435
2193.33	-2.18982
2193.47	4.42252
2193.61	5.7944
2193.75	1.15341
2193.89	2.63641
2194.03	-2.18329
2194.17	0.248383
2194.31	-1.72461
2194.45	0.0541382
2194.59	4.68979
2194.73	-3.77811
2194.87	-3.60495
2195.01	9.85205
2195.15	0.800629
2195.29	3.03369
2195.43	3.32367
2195.57	-0.251251
2195.71	0.123993
2195.85	5.19672
2195.99	3.60254
2196.13	2.63419
2196.27	1.24301
2196.41	1.68826
2196.55	-1.17841
2196.69	6.38358
2196.83	3.15417
2196.97	3.97922
2197.11	5.14987
2197.25	4.20703
2197.39	-2.13242
2197.53	-2.30252
2197.67	-0.560303
2197.81	2.71811
2197.95	3.08694
2198.09	1.90091
2198.23	-0.398438
2198.37	-0.902252
2198.51	2.41357
2198.65	5.10516
2198.79	3.15369
2198.93	1.02969
2199.07	0.604279
2199.21	3.71527
2199.35	1.44028
2199.49	0.438782
2199.63	2.90363
2199.77	-0.24939
2199.91	-3.10138
2200.05	-2.83331
2200.19	4.58624
2200.33	3.15558
2200.47	1.68283
2200.61	1.16296
2200.75	1.36301
2200.89	4.23444
2201.03	4.93921
2201.17	-0.378967
2201.31	1.5668
2201.45	2.97211
2201.59	4.0134
2201.73	0.962341
2201.87	-0.0623169
2202.01	0.0630188
2202.15	0.536804
2202.29	-2.30243
2202.43	6.80139
2202.57	2.91675
2202.71	-0.317566
2202.85	9.72653
2202.99	3.9686
2203.13	-2.56931
2203.27	2.22488
2203.41	-1.58554
2203.55	-3.83252
2203.69	-1.13254
2203.83	-3.67538
2203.97	1.89569
2204.11	-1.44781
2204.25	1.66809
2204.39	-6.38568
2204.53	1.54507
2204.67	1.75711
2204.81	1.9978
2204.95	3.24802
2205.09	1.17288
2205.23	-2.91574
2205.37	-3.8511
2205.51	1.91074
2205.65	0.371979
2205.79	-0.0759583
2205.93	-3.24753
2206.07	-2.33032
2206.21	7.97714
2206.35	-1.92432
2206.49	3.91385
2206.63	-1.4303
2206.77	-2.75519
2206.91	2.55548
2207.04	-0.0149536
2207.18	1.32703
2207.32	4.06607
2207.46	-0.143555
2207.6	-0.953766
2207.74	-1.15115
2207.88	-3.26392
2208.02	-4.10599
2208.16	6.74771
2208.3	-1.50253
2208.44	3.45032
2208.58	-0.994843
2208.72	1.27075
2208.86	1.44333
2209	-2.15756
2209.14	-1.90573
2209.28	-1.54736
2209.42	4.10211
2209.56	0.191284
2209.7	7.73065
2209.84	-4.37088
2209.98	1.52905
2210.12	0.864471
2210.26	-1.0127
2210.4	0.201721
2210.53	-4.22043
2210.67	-3.59573
2210.81	1.40884
2210.95	-2.87976
2211.09	-2.91501
2211.23	-0.650269
2211.37	-3.24515
2211.51	3.76587
2211.65	-1.04773
2211.79	1.25754
2211.93	2.66794
2212.07	-1.03061
2212.21	0.0322266
2212.35	-5.25769
2212.49	0.0435791
2212.63	-0.893982
2212.77	2.84698
2212.91	1.88464
2213.05	-0.247589
2213.19	0.522766
2213.32	0.500702
2213.46	8.61795
2213.6	4.233
2213.74	0.543945
2213.88	0.0727539
2214.02	-1.44519
2214.16	2.48184
2214.3	5.06174
2214.44	6.43472
2214.58	1.9783
2214.72	-3.33325
2214.86	-0.966553
2215	-3.4902
2215.14	-3.19809
2215.28	2.3963
2215.41	-6.52966
2215.55	1.09729
2215.69	-4.26358
2215.83	10.6526
2215.97	-0.254425
2216.11	1.15424
2216.25	-0.423553
2216.39	2.73059
2216.53	0.30365
2216.67	0.525818
2216.81	5.35336
2216.95	1.84286
2217.09	0.456024
2217.23	-2.38919
2217.37	-2.17459
2217.5	1.94412
2217.64	-2.02048
2217.78	0.839081
2217.92	-2.64691
2218.06	-2.69232
2218.2	-2.10248
2218.34	3.81027
2218.48	5.56891
2218.62	0.127472
2218.76	-3.61722
2218.9	0.401459
2219.04	-1.63907
2219.17	-1.2662
2219.31	0.212891
2219.45	7.4621
2219.59	-0.757477
2219.73	3.20325
2219.87	-1.86005
2220.01	1.00629
2220.15	5.47318
2220.29	6.80255
2220.43	-0.13681
2220.57	1.53033
2220.7	2.04425
2220.84	-2.50952
2220.98	3.34271
2221.12	1.82471
2221.26	-1.95712
2221.4	2.58551
2221.54	0.503571
2221.68	-4.70596
2221.82	3.2709
2221.96	-2.88788
2222.1	2.12662
2222.23	4.82971
2222.37	1.92319
2222.51	0.583801
2222.65	10.1567
2222.79	5.42978
2222.93	-1.63824
2223.07	2.35754
2223.21	0.621735
2223.35	0.747864
2223.49	0.259155
2223.63	-2.56027
2223.76	0.914764
2223.9	3.35266
2224.04	1.92261
2224.18	0.599365
2224.32	1.69958
2224.46	1.6828
2224.6	1.0903
2224.74	3.02884
2224.88	0.941345
2225.01	1.83865
2225.15	3.85291
2225.29	0.680573
2225.43	7.35309
2225.57	1.69885
2225.71	0.710846
2225.85	0.666565
2225.99	1.60727
2226.13	1.08319
2226.26	5.31644
2226.4	-2.44946
2226.54	-0.690857
2226.68	6.04837
2226.82	6.08557
2226.96	2.15112
2227.1	6.90106
2227.24	2.79016
2227.38	-0.133514
2227.51	3.41437
2227.65	0.707367
2227.79	1.16809
2227.93	4.21167
2228.07	-3.71255
2228.21	-2.12466
2228.35	-2.30157
2228.49	-1.52982
2228.62	-3.42221
2228.76	-3.32739
2228.9	3.08942
2229.04	0.774933
2229.18	-0.668365
2229.32	3.57608
2229.46	1.78333
2229.6	1.3884
2229.73	-1.40665
2229.87	5.07834
2230.01	-3.83047
2230.15	4.34235
2230.29	-2.20694
2230.43	-2.9071
2230.57	-1.48108
2230.71	-0.414032
2230.84	-1.23215
2230.98	6.46017
2231.12	1.62643
2231.26	-0.904724
2231.4	4.91345
2231.54	5.1861
2231.68	6.0484
2231.81	0.423248
2231.95	3.41064
2232.09	-0.521576
2232.23	4.457
2232.37	1.95013
2232.51	3.28546
2232.65	2.33801
2232.79	-1.54611
2232.92	4.11273
2233.06	0.315247
2233.2	3.85034
2233.34	0.351349
2233.48	0.806915
2233.62	1.68076
2233.76	-1.93094
2233.89	1.26508
2234.03	3.73172
2234.17	-2.45563
2234.31	7.98831
2234.45	5.03375
2234.59	5.1485
2234.72	4.12387
2234.86	3.56393
2235	4.79044
2235.14	3.44839
2235.28	5.96854
2235.42	4.32083
2235.56	3.97742
2235.69	4.18454
2235.83	-2.26254
2235.97	1.94678
2236.11	-3.33264
2236.25	3.80606
2236.39	-0.550537
2236.52	2.03485
2236.66	-0.76236
2236.8	7.79861
2236.94	-0.174042
2237.08	-2.9639
2237.22	4.98724
2237.35	3.2793
2237.49	-2.64114
2237.63	1.76141
2237.77	4.5535
2237.91	0.434631
2238.05	3.43839
2238.19	0.424255
2238.32	2.39651
2238.46	-2.36832
2238.6	3.10034
2238.74	2.64993
2238.88	3.54916
2239.01	6.41492
2239.15	1.52393
2239.29	1.37347
2239.43	2.89099
2239.57	3.47934
2239.71	-0.962036
2239.84	0.975647
2239.98	2.21606
2240.12	5.06259
2240.26	4.39398
2240.4	7.42343
2240.54	5.78284
2240.67	-2.63733
2240.81	4.44229
2240.95	7.31076
2241.09	4.22772
2241.23	-3.93393
2241.37	-1.79364
2241.5	-4.92352
2241.64	0.52243
2241.78	4.46246
2241.92	7.30069
2242.06	2.98807
2242.2	6.88394
2242.33	3.10452
2242.47	-3.00284
2242.61	-2.13168
2242.75	-1.61087
2242.89	1.68774
2243.02	0.521118
2243.16	-0.679535
2243.3	2.23203
2243.44	5.98013
2243.58	-0.891327
2243.72	-3.34634
2243.85	3.36313
2243.99	3.55399
2244.13	10.7746
2244.27	2.75613
2244.41	6.45068
2244.54	-1.32364
2244.68	3.94965
2244.82	0.748901
2244.96	0.649658
2245.1	-0.852417
2245.23	4.86081
2245.37	2.39319
2245.51	5.30917
2245.65	7.76169
2245.79	3.67209
2245.92	6.99326
2246.06	-0.403412
2246.2	5.75717
2246.34	1.95334
2246.48	4.97839
2246.61	2.46881
2246.75	7.87854
2246.89	0.800079
2247.03	12.3208
2247.17	3.02963
2247.3	5.54031
2247.44	4.28088
2247.58	12.1394
2247.72	5.02301
2247.86	0.421082
2247.99	5.27628
2248.13	4.28177
2248.27	2.2869
2248.41	2.35159
2248.55	1.17755
2248.68	0.926697
2248.82	2.1947
2248.96	4.67648
2249.1	1.64609
2249.24	6.28723
2249.37	-0.646881
2249.51	1.83044
2249.65	3.35385
2249.79	5.19687
2249.92	-1.99802
2250.06	5.27454
2250.2	7.20697
2250.34	9.20316
2250.48	5.08154
2250.61	3.52365
2250.75	7.31601
2250.89	-0.636353
2251.03	2.79001
2251.17	5.70322
2251.3	4.82681
2251.44	2.34164
2251.58	0.922363
2251.72	1.22543
2251.85	1.37634
2251.99	-4.58423
2252.13	0.964783
2252.27	6.91721
2252.41	1.72067
2252.54	2.22443
2252.68	2.7851
2252.82	8.46161
2252.96	18.147
2253.09	7.36298
2253.23	1.64157
2253.37	12.6705
2253.51	5.69714
2253.65	2.31747
2253.78	1.08328
2253.92	4.90366
2254.06	5.74713
2254.2	6.48367
2254.33	-0.15036
2254.47	-1.06665
2254.61	10.0825
2254.75	6.85352
2254.88	4.14832
2255.02	4.2785
2255.16	0.0827332
2255.3	3.50534
2255.44	0.909637
2255.57	2.53305
2255.71	4.21567
2255.85	2.10657
2255.99	6.98752
2256.12	4.6239
2256.26	8.92426
2256.4	-3.32458
2256.54	3.7605
2256.67	5.54852
2256.81	3.3504
2256.95	1.86993
2257.09	0.53125
2257.22	3.88736
2257.36	3.694
2257.5	8.12714
2257.64	7.85791
2257.77	-0.108551
2257.91	8.78506
2258.05	-0.183655
2258.19	6.53152
2258.32	4.20102
2258.46	8.21786
2258.6	0.388794
2258.74	2.97122
2258.87	5.1694
2259.01	5.54169
2259.15	2.17905
2259.29	6.69446
2259.42	-1.45044
2259.56	2.33459
2259.7	3.11816
2259.84	14.168
2259.97	1.81055
2260.11	7.81183
2260.25	6.95328
2260.39	6.63632
2260.52	3.40192
2260.66	4.96768
2260.8	4.61765
2260.94	7.36279
2261.07	-2.54797
2261.21	8.79813
2261.35	0.333496
2261.49	2.3056
2261.62	5.5704
2261.76	6.07703
2261.9	1.86484
2262.04	2.91406
2262.17	0.972443
2262.31	5.69507
2262.45	3.47882
2262.58	-0.988708
2262.72	1.19843
2262.86	6.0983
2263	1.23575
2263.13	10.233
2263.27	2.21466
2263.41	0.739319
2263.54	7.28027
2263.68	3.22226
2263.82	9.2048
2263.96	0.586151
2264.09	6.12747
2264.23	1.31061
2264.37	5.10727
2264.51	-1.10587
2264.64	4.62875
2264.78	4.3739
2264.92	5.95425
2265.06	0.0273743
2265.19	-0.410126
2265.33	0.910492
2265.47	0.180328
2265.6	5.96918
2265.74	0.831299
2265.88	0.153503
2266.02	3.1944
2266.15	1.55148
2266.29	1.22424
2266.43	1.76801
2266.56	4.38696
2266.7	9.66714
2266.84	0.222443
2266.98	0.317963
2267.11	0.610443
2267.25	0.664795
2267.39	5.99649
2267.52	5.70822
2267.66	1.45889
2267.8	-0.751099
2267.94	-1.27371
2268.07	5.0965
2268.21	7.86768
2268.35	1.57764
2268.48	8.64279
2268.62	10.0007
2268.76	3.71396
2268.9	4.33807
2269.03	9.33069
2269.17	7.57355
2269.31	1.81693
2269.44	1.13235
2269.58	8.21194
2269.72	7.78323
2269.85	4.97913
2269.99	10.3464
2270.13	6.78616
2270.26	9.28329
2270.4	9.8793
2270.54	5.07089
2270.68	6.65552
2270.81	9.25284
2270.95	3.56671
2271.09	9.5166
2271.22	-0.327301
2271.36	7.90546
2271.5	2.43805
2271.64	2.4899
2271.77	9.45886
2271.91	0.5896
2272.05	-0.0915527
2272.18	9.69928
2272.32	7.71353
2272.46	0.302094
2272.59	7.09915
2272.73	2.17276
2272.87	11.1608
2273	5.23669
2273.14	3.42822
2273.28	10.6289
2273.42	6.68948
2273.55	7.25684
2273.69	-0.930481
2273.83	-0.910492
2273.96	3.74667
2274.1	6.53036
2274.24	3.89063
2274.37	1.67834
2274.51	4.57056
2274.65	6.65112
2274.78	9.96762
2274.92	1.41928
2275.06	3.80692
2275.19	1.74487
2275.33	7.36026
2275.47	6.27267
2275.6	1.37802
2275.74	2.50662
2275.88	-0.364868
2276.01	-0.553955
2276.15	6.43173
2276.29	3.22598
2276.42	6.68729
2276.56	5.97324
2276.7	-2.737
2276.83	5.53815
2276.97	-1.62814
2277.11	7.45374
2277.25	5.6376
2277.38	0.130402
2277.52	4.88571
2277.66	16.2822
2277.79	4.99454
2277.93	2.75897
2278.06	5.64713
2278.2	6.27072
2278.34	6.9751
2278.47	-0.398529
2278.61	5.64911
2278.75	9.20734
2278.89	6.95352
2279.02	6.58792
2279.16	-0.94339
2279.3	5.26645
2279.43	5.19476
2279.57	16.2471
2279.71	2.51453
2279.84	4.45496
2279.98	3.74039
2280.11	5.63681
2280.25	5.22934
2280.39	2.07095
2280.52	7.32596
2280.66	3.05682
2280.8	4.62036
2280.93	3.00925
2281.07	2.13733
2281.21	4.65109
2281.34	3.36819
2281.48	4.14169
2281.62	2.84409
2281.75	1.87549
2281.89	6.38931
2282.03	7.86526
2282.16	3.88324
2282.3	7.12158
2282.44	15.3942
2282.57	4.9657
2282.71	3.23395
2282.85	10.0959
2282.98	2.06815
2283.12	7.39148
2283.25	1.91791
2283.39	3.70175
2283.53	5.28683
2283.66	3.53192
2283.8	2.9248
2283.94	6.0939
2284.07	-1.96078
2284.21	2.5842
2284.35	7.72675
2284.48	1.56198
2284.62	0.76358
2284.76	-0.670013
2284.89	5.41049
2285.03	-0.319122
2285.16	3.49219
2285.3	6.26443
2285.44	0.566223
2285.57	4.76685
2285.71	3.0264
2285.85	3.84442
2285.98	3.6875
2286.12	6.68259
2286.26	4.76773
2286.39	6.66812
2286.53	-0.951599
2286.66	3.5697
2286.8	5.50607
2286.94	-1.32431
2287.07	3.10611
2287.21	2.31769
2287.35	3.00922
2287.48	5.71307
2287.62	1.58194
2287.75	-1.64429
2287.89	14.5266
2288.03	0.120087
2288.16	6.55881
2288.3	1.1731
2288.44	2.34525
2288.57	-1.02716
2288.71	0.896698
2288.84	2.61108
2288.98	-2.99448
2289.12	6.70026
2289.25	0.367065
2289.39	2.56738
2289.53	0.807404
2289.66	-2.11215
2289.8	3.84912
2289.93	-0.556946
2290.07	0.80426
2290.21	2.63559
2290.34	-1.94345
2290.48	2.82047
2290.61	4.81784
2290.75	4.21335
2290.89	2.62885
2291.02	3.8353
2291.16	7.57712
2291.3	-3.30017
2291.43	5.85001
2291.57	4.06396
2291.7	-2.24261
2291.84	5.77225
2291.98	-1.99594
2292.11	3.19019
2292.25	-0.168488
2292.38	-0.471344
2292.52	1.71899
2292.66	8.48624
2292.79	1.29852
2292.93	3.3782
2293.06	0.573425
2293.2	6.2424
2293.34	-2.76114
2293.47	0.250244
2293.61	-0.156586
2293.74	0.00604248
2293.88	-3.96695
2294.02	4.75372
2294.15	4.44574
2294.29	1.14325
2294.42	9.8559
2294.56	1.05469
2294.7	-1.04654
2294.83	1.32446
2294.97	1.50488
2295.1	-2.69519
2295.24	6.92688
2295.38	1.59875
2295.51	6.4679
2295.65	0.335693
2295.78	3.80576
2295.92	3.79813
2296.06	1.79004
2296.19	2.19849
2296.33	2.24393
2296.46	3.91089
2296.6	11.4249
2296.74	-0.793274
2296.87	0.851807
2297.01	5.24344
2297.14	2.51599
2297.28	-5.3371
2297.41	3.52921
2297.55	7.84503
2297.69	-1.03671
2297.82	5.09625
2297.96	-0.777527
2298.09	5.14337
2298.23	3.70383
2298.37	-1.10428
2298.5	3.41321
2298.64	-1.53436
2298.77	2.09579
2298.91	2.52036
2299.04	-2.06754
2299.18	10.0421
2299.32	-1.77521
2299.45	2.79456
2299.59	-5.01437
2299.72	2.08279
2299.86	2.78351
2299.99	5.40216
2300.13	-1.58185
2300.27	6.24652
2300.4	3.34698
2300.54	-7.13504
2300.67	-1.121
2300.81	-2.30426
2300.94	4.72736
2301.08	-4.64481
2301.22	5.04413
2301.35	3.40369
2301.49	4.12076
2301.62	-0.744537
2301.76	0.816071
2301.89	4.2767
2302.03	3.64166
2302.17	-0.292877
2302.3	4.71884
2302.44	0.981506
2302.57	0.832123
2302.71	2.21533
2302.84	1.74899
2302.98	-0.373749
2303.11	-2.50275
2303.25	-3.95929
2303.39	4.40955
2303.52	-4.11478
2303.66	-3.32291
2303.79	1.90677
2303.93	3.06561
2304.06	-3.26019
2304.2	3.56125
2304.33	1.40176
2304.47	7.95599
2304.61	3.05829
2304.74	-1.80777
2304.88	-0.723419
2305.01	-1.33871
2305.15	0.37384
2305.28	9.47775
2305.42	-2.48642
2305.55	-0.527496
2305.69	-0.264343
2305.83	6.77536
2305.96	7.47211
2306.1	-2.2587
2306.23	-4.90042
2306.37	-8.64929
2306.5	26.5438
2306.64	-1.88306
2306.77	1.9881
2306.91	-1.85065
2307.04	-3.68423
2307.18	1.06546
2307.32	0.132965
2307.45	2.07666
2307.59	-0.886353
2307.72	1.35223
2307.86	-0.344025
2307.99	4.27869
2308.13	-2.04114
2308.26	-1.40286
2308.4	0.870239
2308.53	3.14807
2308.67	-2.81497
2308.81	0.483093
2308.94	-0.0142822
2309.08	3.01413
2309.21	4.08594
2309.35	-2.07825
2309.48	2.50085
2309.62	-2.01181
2309.75	-0.306335
2309.89	4.26773
2310.02	2.90652
2310.16	6.37848
2310.29	1.91248
2310.43	0.546265
2310.56	1.39877
2310.7	-2.17245
2310.83	5.28592
2310.97	-0.551117
2311.11	6.31262
2311.24	1.64572
2311.38	5.05801
2311.51	2.4144
2311.65	-4.8338
2311.78	-5.58752
2311.92	-0.291321
2312.05	-3.98511
2312.19	2.13477
2312.32	0.254425
2312.46	2.16934
2312.59	-1.73907
2312.73	-6.31619
2312.86	1.80554
2313	-1.32016
2313.13	1.22012
2313.27	5.0473
2313.4	1.5127
2313.54	7.5134
2313.67	-1.63873
2313.81	3.802
2313.95	-0.406342
2314.08	-0.296967
2314.22	2.40286
2314.35	-1.00342
2314.48	-1.36597
2314.62	-3.07077
2314.76	3.28619
2314.89	-2.90805
2315.03	3.76602
2315.16	2.67432
2315.3	-3.30399
2315.43	0.529846
2315.57	-0.287415
2315.7	-2.33142
2315.84	-3.3656
2315.97	2.51471
2316.11	-4.78406
2316.24	0.254425
2316.38	0.274353
2316.51	2.05524
2316.65	-1.42786
2316.78	3.73621
2316.92	-2.21216
2317.05	4.27002
2317.19	-2.53931
2317.32	0.478943
2317.46	-1.23639
2317.59	5.47006
2317.73	-0.287811
2317.86	5.63965
2318	-0.156799
2318.13	5.30896
2318.27	-1.80692
2318.4	-0.420807
2318.54	-0.491486
2318.67	1.85693
2318.81	7.86261
2318.94	-5.7883
2319.08	-1.23129
2319.21	0.102905
2319.35	-4.51559
2319.48	-4.57834
2319.62	-3.35638
2319.75	1.82626
2319.89	0.286652
2320.02	-5.27328
2320.16	3.24896
2320.29	0.509949
2320.42	-0.896118
2320.56	1.18088
2320.69	0.695221
2320.83	3.17719
2320.96	-4.96173
2321.1	4.62448
2321.23	-2.13007
2321.37	-2.60669
2321.5	-0.709747
2321.64	4.10706
2321.77	-2.6008
2321.91	0.00906372
2322.04	1.20169
2322.18	-0.259521
2322.31	-0.724609
2322.45	1.54254
2322.58	-3.60663
2322.72	0.670807
2322.85	6.65671
2322.99	0.160919
2323.12	0.123474
2323.26	8.22348
2323.39	-3.59836
2323.53	-4.09329
2323.66	5.83542
2323.79	-2.28427
2323.93	3.27597
2324.06	0.883575
2324.2	1.21674
2324.33	5.12787
2324.47	1.7984
2324.6	-2.22607
2324.74	-1.51071
2324.87	-2.25244
2325.01	-2.28745
2325.14	-2.10983
2325.28	1.58456
2325.41	1.52557
2325.55	-5.85181
2325.68	-1.0697
2325.81	-1.57553
2325.95	7.77206
2326.08	1.91132
2326.22	6.04794
2326.35	-3.52112
2326.49	3.85919
2326.62	3.18054
2326.76	2.97681
2326.89	-1.13321
2327.03	3.03113
2327.16	7.99902
2327.3	2.04175
2327.43	6.38049
2327.56	9.76187
2327.7	22.6371
2327.83	8.83002
2327.97	20.0513
2328.1	27.5421
2328.24	23.2902
2328.37	36.5601
2328.51	27.5564
2328.64	10.2666
2328.78	9.4346
2328.91	14.372
2329.04	13.5068
2329.18	13.6947
2329.31	-3.0228
2329.45	-2.82742
2329.58	3.24896
2329.72	0.564026
2329.85	-3.0029
2329.99	-4.49014
2330.12	-1.8418
2330.25	-0.517761
2330.39	7.88306
2330.52	1.28308
2330.66	1.5127
2330.79	3.53842
2330.93	-0.890198
2331.06	-2.77594
2331.2	-2.67548
2331.33	-2.49832
2331.46	-3.9509
2331.6	1.85724
2331.73	-1.83221
2331.87	2.09811
2332	4.2782
2332.14	1.14063
2332.27	-0.437592
2332.4	-0.174683
2332.54	-2.94849
2332.67	4.35806
2332.81	1.65372
2332.94	-5.51691
2333.08	-4.56863
2333.21	-1.36978
2333.34	-0.116699
2333.48	1.48016
2333.61	5.90683
2333.75	-3.17203
2333.88	-0.533203
2334.02	-3.60144
2334.15	-1.99777
2334.29	4.98346
2334.42	2.86365
2334.55	-0.35907
2334.69	0.531525
2334.82	2.89417
2334.96	3.46292
2335.09	0.821625
2335.23	0.83252
2335.36	6.94412
2335.49	1.25037
2335.63	3.55811
2335.76	6.64099
2335.9	11.0739
2336.03	1.99887
2336.17	2.66983
2336.3	-1.80936
2336.43	1.17517
2336.57	-4.31165
2336.7	-0.964081
2336.84	0.81488
2336.97	13.56
2337.1	-3.62839
2337.24	-2.53967
2337.37	3.58432
2337.51	1.92972
2337.64	-2.35519
2337.77	-6.11957
2337.91	1.02835
2338.04	3.60962
2338.18	5.42764
2338.31	-1.68234
2338.45	1.33597
2338.58	-4.55399
2338.71	-1.72574
2338.85	-2.70871
2338.98	3.47882
2339.12	-1.69922
2339.25	3.33362
2339.38	3.49731
2339.52	0.343384
2339.65	-0.115204
2339.79	4.72992
2339.92	1.36493
2340.05	1.64716
2340.19	-0.532959
2340.32	2.97632
2340.46	4.30646
2340.59	3.11798
2340.72	1.35379
2340.86	-0.592743
2340.99	3.92969
2341.13	-1.04654
2341.26	-4.47824
2341.39	1.26947
2341.53	2.44357
2341.66	0.243469
2341.8	0.162323
2341.93	1.07932
2342.06	4.24911
2342.2	3.37112
2342.33	-3.04926
2342.47	0.28537
2342.6	-0.921844
2342.73	2.48938
2342.87	0.223206
2343	-0.946808
2343.13	0.500916
2343.27	-1.17944
2343.4	3.17697
2343.54	-0.567688
2343.67	-1.00812
2343.8	-1.50684
2343.94	2.63257
2344.07	0.288849
2344.21	-0.618713
2344.34	-1.48889
2344.47	4.36603
2344.61	-4.86624
2344.74	-3.05188
2344.87	1.09979
2345.01	1.04684
2345.14	2.43701
2345.28	-0.602386
2345.41	2.47363
2345.54	-1.30859
2345.68	-0.775604
2345.81	1.22824
2345.94	-1.25497
2346.08	3.63782
2346.21	0.876831
2346.35	0.400787
2346.48	1.01071
2346.61	0.965485
2346.75	1.59714
2346.88	2.16934
2347.02	3.84167
2347.15	1.67029
2347.28	2.70947
2347.42	9.01352
2347.55	-1.58023
2347.68	-3.30511
2347.82	-1.327
2347.95	2.42163
2348.08	0.975311
2348.22	-0.813477
2348.35	-0.380615
2348.49	-1.23953
2348.62	-0.901733
2348.75	2.35687
2348.89	3.50565
2349.02	-0.744171
2349.15	-0.235535
2349.29	5.38892
2349.42	4.66571
2349.55	3.27548
2349.69	3.44925
2349.82	2.65298
2349.96	-0.854889
2350.09	1.66586
2350.22	4.10504
2350.36	0.180878
2350.49	-0.90509
2350.62	1.22238
2350.76	2.41452
2350.89	0.607788
2351.02	1.83868
2351.16	2.23425
2351.29	-0.684296
2351.42	0.181213
2351.56	-0.569885
2351.69	2.15637
2351.83	1.97552
2351.96	2.39398
2352.09	5.32147
2352.21	-0.116211
2352.35	-0.779572
2352.48	0.834991
2352.62	10.9058
2352.75	4.95624
2352.89	0.442993
2353.03	0.835968
2353.16	2.89075
2353.3	2.33463
2353.43	-1.42218
2353.57	3.93985
2353.71	2.39499
2353.84	0.172607
2353.98	1.95102
2354.11	-3.72501
2354.25	3.36929
2354.38	2.98535
2354.52	-2.20697
2354.66	4.62018
2354.79	3.6351
2354.93	-0.529114
2355.06	-0.306976
2355.2	2.6366
2355.34	5.7876
2355.47	-1.2789
2355.61	2.7872
2355.74	-4.90836
2355.88	0.297729
2356.01	2.12582
2356.15	-2.81424
2356.29	1.69763
2356.42	-2.56067
2356.56	-2.92331
2356.69	-3.12921
2356.83	-0.63736
2356.96	1.59805
2357.1	-5.21506
2357.24	-3.5119
2357.37	-3.10739
2357.51	-2.2301
2357.64	-2.04581
2357.78	3.33636
2357.91	-0.974548
2358.05	-3.04468
2358.19	-0.449493
2358.32	3.0144
2358.46	-4.91916
2358.59	-1.3494
2358.73	10.3496
2358.86	0.569794
2359	2.9736
2359.14	-3.46173
2359.27	-3.67023
2359.41	-1.23929
2359.54	16.3293
2359.68	-3.63684
2359.81	1.8175
2359.95	0.433899
2360.09	-3.01822
2360.22	-0.0215454
2360.36	2.05472
2360.49	-1.4863
2360.63	0.695526
2360.76	1.8197
2360.9	-3.33926
2361.03	-0.414551
2361.17	1.35669
2361.31	0.213989
2361.44	1.33948
2361.58	-2.74744
2361.71	5.20013
2361.85	1.81146
2361.98	-2.3103
2362.12	-0.821075
2362.25	10.2631
2362.39	5.12241
2362.53	-3.95673
2362.66	3.97861
2362.8	-0.931213
2362.93	-3.95682
2363.07	6.79282
2363.2	4.85272
2363.34	0.937714
2363.47	6.34885
2363.61	-5.72461
2363.74	13.3947
2363.88	5.3764
2364.02	-1.08701
2364.15	2.6716
2364.29	-4.27643
2364.42	4.34525
2364.56	0.838318
2364.69	-0.929016
2364.83	-1.30832
2364.96	-2.29025
2365.1	2.02414
2365.24	-2.6026
2365.37	7.91299
2365.51	0.632904
2365.64	-1.57318
2365.78	2.39322
2365.91	3.74442
2366.05	-5.97772
2366.18	1.05624
2366.32	5.61105
2366.45	6.70734
2366.59	-1.8558
2366.72	4.08664
2366.86	5.33179
2366.99	0.929474
2367.13	-1.19553
2367.26	-0.544403
2367.4	4.08105
2367.54	-0.00704956
2367.67	-0.753662
2367.81	1.09174
2367.94	0.813354
2368.08	2.88147
2368.21	3.7673
2368.35	-2.75772
2368.48	-1.04871
2368.62	2.38452
2368.75	-3.09705
2368.89	3.35785
2369.02	3.54523
2369.16	3.06976
2369.29	-0.104309
2369.43	-0.274994
2369.56	0.803833
2369.7	-0.695862
2369.83	-1.40921
2369.97	1.67548
2370.1	1.07571
2370.24	2.69458
2370.38	1.90207
2370.51	-1.46188
2370.65	5.50095
2370.78	3.38504
2370.92	5.47986
2371.05	1.75455
2371.19	0.406586
2371.32	1.14349
2371.46	4.36795
2371.59	-1.27795
2371.73	2.55765
2371.86	0.21051
2372	4.47366
2372.13	3.37671
2372.27	0.87616
2372.4	11.9218
2372.54	0.673462
2372.67	1.04965
2372.81	-0.534821
2372.94	-4.14795
2373.08	11.2723
2373.21	-1.72464
2373.35	-1.20694
2373.48	-1.17072
2373.62	6.55707
2373.75	3.60031
2373.89	7.82584
2374.02	1.35019
2374.16	0.507233
2374.29	-2.63751
2374.43	2.1315
2374.56	7.6756
2374.7	-0.707642
2374.83	6.11276
2374.97	0.32135
2375.1	-2.26663
2375.24	4.00256
2375.37	2.25549
2375.51	1.94601
2375.64	0.695648
2375.78	-0.789856
2375.91	1.90088
2376.05	1.0766
2376.18	3.07483
2376.32	5.03818
2376.45	0.825958
2376.59	-3.78152
2376.72	-1.35626
2376.86	1.00964
2376.99	0.923981
2377.13	4.56595
2377.26	-1.28928
2377.4	6.11166
2377.53	-1.7074
2377.67	2.47925
2377.8	0.253174
2377.94	1.24582
2378.07	2.45038
2378.21	-0.45816
2378.34	-0.312592
2378.48	-2.20673
2378.61	1.28485
2378.75	2.66132
2378.88	2.79459
2379.02	6.64761
2379.15	1.22934
2379.29	2.70947
2379.42	2.32617
2379.56	4.11484
2379.69	1.51578
2379.83	1.21033
2379.96	-1.28842
2380.09	8.21887
2380.23	6.75555
2380.36	0.92749
2380.5	1.26285
2380.63	-4.06009
2380.77	1.28329
2380.9	1.24124
2381.04	6.69281
2381.17	-0.261963
2381.31	-1.23129
2381.44	0.453949
2381.58	1.45416
2381.71	0.135468
2381.85	-0.24823
2381.98	1.47919
2382.12	6.62595
2382.25	5.14709
2382.39	-0.417694
2382.52	14.856
2382.65	5.1377
2382.79	10.0049
2382.92	0.140381
2383.06	-0.18866
2383.19	0.301422
2383.33	-1.97552
2383.46	2.65497
2383.6	-0.900787
2383.73	8.28503
2383.87	-0.0940857
2384	-0.976074
2384.14	4.02942
2384.27	7.58444
2384.4	0.702179
2384.54	-1.76126
2384.67	3.06497
2384.81	-9.45108
2384.94	-0.543213
2385.08	-1.66376
2385.21	5.65781
2385.35	2.92258
2385.48	6.77759
2385.62	-4.18951
2385.75	5.03912
2385.88	3.36139
2386.02	-0.829285
2386.15	8.5192
2386.29	1.14145
2386.42	3.52902
2386.56	3.57968
2386.69	-0.618652
2386.83	-0.442261
2386.96	-0.305054
2387.1	-2.84058
2387.23	5.42014
2387.36	5.22961
2387.5	-0.471985
2387.63	0.127594
2387.77	2.53174
2387.9	0.233032
2388.04	2.73544
2388.17	-1.43747
2388.31	-0.0426331
2388.44	4.65381
2388.57	-0.132202
2388.71	1.78616
2388.84	-0.0278625
2388.98	3.07922
2389.11	-3.55783
2389.25	-0.842194
2389.38	0.784882
2389.52	1.28018
2389.65	0.404022
2389.78	0.0567322
2389.92	1.93384
2390.05	-0.544037
2390.19	-2.04501
2390.32	-0.781982
2390.46	-3.06232
2390.59	1.33435
2390.73	13.3358
2390.86	0.11676
2390.99	-2.1868
2391.13	6.70566
2391.26	4.82004
2391.4	0.898132
2391.53	4.67624
2391.67	5.29868
2391.8	5.28448
2391.93	1.78876
2392.07	-1.86331
2392.2	4.3873
2392.34	-1.99359
2392.47	1.93661
2392.6	-0.744904
2392.74	0.612579
2392.87	3.18637
2393.01	4.46347
2393.14	4.75781
2393.28	-1.12927
2393.41	2.56693
2393.54	1.13147
2393.68	-1.23337
2393.81	-1.08224
2393.95	-0.197388
2394.08	-0.428741
2394.22	2.85971
2394.35	-3.05035
2394.48	3.33282
2394.62	6.4646
2394.75	-0.950531
2394.89	-0.601685
2395.02	0.527039
2395.16	3.74188
2395.29	-1.77542
2395.42	1.59521
2395.56	3.92319
2395.69	0.514709
2395.83	-1.43777
2395.96	0.534546
2396.09	3.38223
2396.23	2.52786
2396.36	3.06845
2396.5	2.59308
2396.63	3.55145
2396.76	1.52151
2396.9	0.447205
2397.03	-0.518036
2397.17	6.85403
2397.3	4.15671
2397.44	-2.91071
2397.57	-1.5271
2397.7	-1.84528
2397.84	-1.52695
2397.97	-2.68671
2398.11	8.00565
2398.24	-0.809204
2398.37	1.25034
2398.51	-0.74173
2398.64	3.08362
2398.78	-0.150482
2398.91	-3.25052
2399.04	-5.51831
2399.18	0.375244
2399.31	-1.36401
2399.44	2.65973
2399.58	2.16095
2399.71	-3.45825
2399.85	0.460602
2399.98	-0.706848
