#Acq. time (s)=	45
#Accumulations=	2
#Range (cm-¹)=	1200...2380
#Windows=	6
#Auto scanning=	Off
#Autofocus=	Off
#Macrospot=	Off
#AutoExposure=	Off
#Spike filter=	Multiple accum.
#Delay time (s)=	2
#Binning=	1
#Readout mode=	Signal
#DeNoise=	Off
#ICS correction=	On
#Dark correction=	Off
#Inst. Process=	Off
#Detector Gain=	Best Dynamic
#Detector ADC=	50 kHz EM
#Detector EM gain=	100
#Detector temperature (°C)=	-60.09
#Instrument=	LabRAM HR Evol
#Detector=	SIN-EM FIVIS
#Objective=	x100_VIS_LWD
#Grating=	1800 (450-850nm)
#ND Filter=	100%
#Laser=	633nm_Edge
#Hole=	49.98
#Temperature=	0
#Range=	Visible
#StageXY=	75x50mm Scan+
#StageZ=	Z motor
#X (µm)=	0
#Y (µm)=	0
#Z (µm)=	16.9
#Full time(mm:ss)=	9:36
#Project=	21_11_22
#Sample=	BU04w
#Site=	
#Title=	BU04w-A-FF3-FI05-V_1800 (450-850nm)_633nm_Edge_100%_x100_VIS_LWD_H50um_45sX2
#Remark=	
#Date=	22.11.2021 11:27
#Acquired=	22.11.2021 11:27:50
#Base:Fit=	16.12.2021 16:15:35
#Base:Fit=	16.12.2021 16:23:33
#Base:Sub=	16.12.2021 16:23:35
1200.03	8.51492
1200.21	4.45981
1200.38	-0.695343
1200.55	4.80237
1200.72	8.94293
1200.89	0.262756
1201.07	2.3699
1201.24	1.98663
1201.41	1.42236
1201.58	-4.84174
1201.76	8.04269
1201.93	-1.73553
1202.1	4.22208
1202.27	7.103
1202.44	-1.83673
1202.62	3.63254
1202.79	0.271423
1202.96	5.96759
1203.13	-0.995667
1203.3	-1.82654
1203.48	-2.50543
1203.65	9.694
1203.82	3.49301
1203.99	4.36108
1204.16	1.81458
1204.34	1.30179
1204.51	-1.39188
1204.68	-1.52979
1204.85	0.867004
1205.02	1.95438
1205.2	1.48557
1205.37	2.1088
1205.54	-0.848175
1205.71	3.81134
1205.88	5.69751
1206.06	-4.06122
1206.23	-1.07883
1206.4	-3.53391
1206.57	-1.16263
1206.74	1.20999
1206.92	-0.642548
1207.09	-5.3483
1207.26	6.13629
1207.43	-0.279785
1207.6	-0.138275
1207.77	3.27261
1207.95	2.51129
1208.12	2.3053
1208.29	1.90613
1208.46	4.09253
1208.63	2.21411
1208.8	-0.0483093
1208.98	2.7529
1209.15	-4.96835
1209.32	-0.296875
1209.49	-1.15396
1209.66	2.43359
1209.84	-4.19623
1210.01	-2.92175
1210.18	-2.09555
1210.35	3.71173
1210.52	0.668304
1210.69	2.8197
1210.87	1.58563
1211.04	-1.54565
1211.21	-6.82596
1211.38	-1.81763
1211.55	-4.39658
1211.72	0.162994
1211.9	0.154694
1212.07	-2.25967
1212.24	4.37067
1212.41	2.76474
1212.58	4.68558
1212.75	-1.29523
1212.93	5.90439
1213.1	-0.756653
1213.27	0.896362
1213.44	-0.995667
1213.61	0.471954
1213.78	0.689972
1213.95	0.210968
1214.13	0.529053
1214.3	-3.09891
1214.47	-2.0535
1214.64	-0.940247
1214.81	6.33966
1214.98	-0.502258
1215.16	0.973389
1215.33	-1.35736
1215.5	1.9899
1215.67	0.936798
1215.84	-2.37115
1216.01	0.0578613
1216.18	-0.46463
1216.36	0.815247
1216.53	-1.60126
1216.7	0.815277
1216.87	-3.53149
1217.04	0.312012
1217.21	4.10651
1217.38	3.16956
1217.56	-4.2562
1217.73	5.59839
1217.9	-2.07919
1218.07	3.88995
1218.24	2.99399
1218.41	5.50735
1218.58	2.35007
1218.76	2.1539
1218.93	-2.57831
1219.1	0.842163
1219.27	-3.75961
1219.44	4.30759
1219.61	-1.91727
1219.78	0.565521
1219.96	-2.15909
1220.13	5.51529
1220.3	1.62943
1220.47	-0.185577
1220.64	3.7019
1220.81	-0.0823669
1220.98	6.13226
1221.15	-5.07404
1221.33	3.20013
1221.5	-0.740448
1221.67	1.16724
1221.84	2.54401
1222.01	3.97195
1222.18	-1.98773
1222.35	0.730164
1222.53	1.96088
1222.7	-2.7092
1222.87	2.15274
1223.04	3.75217
1223.21	-3.38293
1223.38	0.661835
1223.55	4.92136
1223.72	1.90424
1223.89	3.84064
1224.07	-0.516357
1224.24	4.12363
1224.41	1.703
1224.58	2.40347
1224.75	-2.43701
1224.92	1.98187
1225.09	1.4209
1225.26	-3.35709
1225.43	-0.254913
1225.6	5.59671
1225.78	-3.02487
1225.95	0.588257
1226.12	0.74646
1226.29	3.34338
1226.46	2.3728
1226.63	-0.994415
1226.8	17.2021
1226.97	4.7117
1227.14	3.59741
1227.32	3.66949
1227.49	1.9567
1227.66	1.23145
1227.83	5.01346
1228	5.33502
1228.17	4.11502
1228.34	6.32449
1228.51	-0.348938
1228.68	-1.62805
1228.85	0.244751
1229.03	3.24118
1229.2	-2.28259
1229.37	-0.00512695
1229.54	9.29199
1229.71	-2.44562
1229.88	4.77927
1230.05	5.51746
1230.22	5.83688
1230.39	-2.32825
1230.56	2.70981
1230.73	-0.902649
1230.91	2.12967
1231.08	-0.333679
1231.25	3.72739
1231.42	0.932587
1231.59	2.92416
1231.76	3.38983
1231.93	3.10098
1232.1	14.8911
1232.27	-4.00772
1232.44	-1.39938
1232.61	-0.293732
1232.78	3.08304
1232.96	3.78195
1233.13	5.42224
1233.3	-0.500946
1233.47	1.38324
1233.64	-3.12964
1233.81	4.80283
1233.98	-0.702698
1234.15	4.20059
1234.32	-1.28494
1234.49	6.39752
1234.66	4.24094
1234.83	0.456055
1235	-1.17578
1235.17	1.03894
1235.35	2.69186
1235.52	-2.09952
1235.69	2.22119
1235.86	8.79504
1236.03	1.73248
1236.2	6.10873
1236.37	1.13486
1236.54	1.00092
1236.71	1.79419
1236.88	4.68921
1237.05	1.13959
1237.22	7.58514
1237.39	3.81018
1237.56	1.68964
1237.73	-1.23965
1237.9	2.26202
1238.07	4.6427
1238.25	8.42697
1238.42	6.81589
1238.59	-1.46243
1238.76	6.40622
1238.93	7.24744
1239.1	-0.038269
1239.27	10.4153
1239.44	-4.4209
1239.61	11.521
1239.78	3.48059
1239.95	-2.04095
1240.12	-1.36523
1240.29	3.99487
1240.46	0.475708
1240.63	7.74512
1240.8	4.36545
1240.97	0.206787
1241.14	2.40295
1241.31	1.57013
1241.48	4.62424
1241.66	-3.23694
1241.83	3.16776
1242	4.55807
1242.17	2.25244
1242.34	8.72705
1242.51	9.47968
1242.68	7.25644
1242.85	-2.76233
1243.02	8.66837
1243.19	4.55493
1243.36	6.4906
1243.53	2.15961
1243.7	4.97318
1243.87	1.06021
1244.04	3.36136
1244.21	4.99478
1244.38	5.31097
1244.55	10.1521
1244.72	-0.613953
1244.89	5.03995
1245.06	2.25186
1245.23	0.814026
1245.4	8.86893
1245.57	1.3826
1245.74	2.29294
1245.91	3.22699
1246.08	2.30896
1246.25	1.80029
1246.42	9.69458
1246.59	14.1765
1246.76	4.43433
1246.93	10.7963
1247.1	0.519684
1247.27	-2.42889
1247.44	2.0101
1247.61	8.37643
1247.79	1.01553
1247.96	2.80283
1248.13	4.89465
1248.3	4.05032
1248.47	0.956421
1248.64	2.16415
1248.81	0.354675
1248.98	0.698181
1249.15	2.20792
1249.32	4.06369
1249.49	7.25436
1249.66	2.92752
1249.83	6.12872
1250	10.381
1250.17	6.289
1250.34	3.46667
1250.51	4.80029
1250.68	3.84
1250.85	4.44092
1251.02	5.26328
1251.19	2.75552
1251.36	7.71143
1251.53	4.71948
1251.7	5.20346
1251.87	6.37637
1252.04	0.211853
1252.21	5.20111
1252.38	8.27536
1252.55	5.81116
1252.72	8.32837
1252.89	3.23856
1253.06	4.11212
1253.23	4.60254
1253.4	0.613953
1253.57	-1.74469
1253.74	0.864471
1253.91	2.4306
1254.08	4.98776
1254.25	0.95108
1254.42	7.26205
1254.59	1.88727
1254.75	2.05637
1254.93	8.53436
1255.09	8.00647
1255.27	10.9174
1255.43	1.68332
1255.6	0.800964
1255.77	10.9828
1255.94	5.25305
1256.11	8.66568
1256.28	7.22482
1256.45	8.77133
1256.62	3.41364
1256.79	4.81744
1256.96	-0.19574
1257.13	7.23813
1257.3	1.47116
1257.47	11.5739
1257.64	6.32129
1257.81	2.62634
1257.98	5.40698
1258.15	3.29376
1258.32	7.09995
1258.49	3.90692
1258.66	8.06473
1258.83	6.69278
1259	4.67966
1259.17	-1.15515
1259.34	9.18668
1259.51	5.63297
1259.68	6.23001
1259.85	10.2189
1260.02	5.04999
1260.19	8.55246
1260.36	2.64944
1260.53	5.82004
1260.7	1.69669
1260.87	10.7672
1261.03	2.39816
1261.2	-1.36411
1261.37	9.44226
1261.54	6.26917
1261.71	2.64877
1261.88	4.3132
1262.05	-2.02954
1262.22	0.115875
1262.39	3.76685
1262.56	6.37561
1262.73	4.79861
1262.9	8.69073
1263.07	3.53992
1263.24	0.481415
1263.41	5.20969
1263.58	8.12924
1263.75	6.27136
1263.92	8.16782
1264.09	6.72372
1264.26	9.05722
1264.43	2.03046
1264.59	10.7713
1264.76	5.81595
1264.93	11.2007
1265.1	7.18277
1265.27	7.91824
1265.44	0.83728
1265.61	9.01648
1265.78	8.97202
1265.95	3.97293
1266.12	16.3907
1266.29	6.35056
1266.46	-0.247467
1266.63	10.5626
1266.8	5.47107
1266.97	5.547
1267.14	10.1245
1267.3	5.78571
1267.47	4.17123
1267.64	5.56461
1267.81	10.7843
1267.98	4.47168
1268.15	8.5368
1268.32	8.49438
1268.49	3.37427
1268.66	12.4732
1268.83	5.17047
1269	5.41257
1269.17	4.99542
1269.34	1.9017
1269.51	3.85513
1269.67	4.80536
1269.84	4.12662
1270.01	0.903809
1270.18	1.64941
1270.35	4.75156
1270.52	3.72629
1270.69	11.2762
1270.86	11.3161
1271.03	6.95514
1271.2	1.14905
1271.37	7.91498
1271.53	5.69543
1271.7	5.91782
1271.87	3.44171
1272.04	3.6936
1272.21	2.80762
1272.38	7.41309
1272.55	6.73624
1272.72	1.88406
1272.89	6.26581
1273.06	8.91531
1273.23	7.44501
1273.4	11.1518
1273.56	7.44827
1273.73	1.54437
1273.9	6.04102
1274.07	1.38419
1274.24	3.75586
1274.41	3.92706
1274.58	2.41849
1274.75	9.06024
1274.92	4.16611
1275.09	7.49643
1275.26	5.98871
1275.42	13.1511
1275.59	9.64236
1275.76	4.32581
1275.93	3.20844
1276.1	7.51941
1276.27	2.21271
1276.44	2.37888
1276.61	4.24866
1276.77	5.79013
1276.94	1.02182
1277.11	2.15503
1277.28	4.17053
1277.45	4.12686
1277.62	6.50772
1277.79	5.7511
1277.96	4.50317
1278.13	5.20721
1278.3	4.11084
1278.46	3.33221
1278.63	4.35812
1278.8	5.25464
1278.97	6.31589
1279.14	6.9241
1279.31	4.67773
1279.48	10.6036
1279.65	-0.625427
1279.82	0.454956
1279.98	-1.6413
1280.15	6.65112
1280.32	4.08661
1280.49	5.85065
1280.66	2.70706
1280.83	2.3382
1281	8.09891
1281.17	7.5184
1281.33	-2.27231
1281.5	4.78513
1281.67	-1.811
1281.84	6.87451
1282.01	9.17087
1282.18	8.60382
1282.35	7.98294
1282.51	14.2867
1282.68	12.7127
1282.85	3.93503
1283.02	7.64856
1283.19	6.80493
1283.36	9.17465
1283.53	15.4887
1283.7	23.3985
1283.86	20.1125
1284.03	29.8589
1284.2	33.9878
1284.37	26.742
1284.54	10.5847
1284.71	23.5546
1284.88	13.6961
1285.04	11.5862
1285.21	12.2119
1285.38	3.70718
1285.55	7.758
1285.72	4.76624
1285.89	2.77744
1286.06	7.10504
1286.22	9.93356
1286.39	4.52719
1286.56	8.7626
1286.73	2.05328
1286.9	1.27191
1287.07	6.21796
1287.23	5.98303
1287.4	5.58566
1287.57	4.60263
1287.74	0.961792
1287.91	1.38254
1288.08	2.3457
1288.25	6.1813
1288.41	6.70251
1288.58	3.52045
1288.75	1.56229
1288.92	0.0802612
1289.09	-2.36938
1289.26	-0.0451355
1289.42	7.3584
1289.59	-1.07681
1289.76	6.83801
1289.93	0.749695
1290.1	1.85498
1290.27	4.09454
1290.44	4.948
1290.6	0.0154114
1290.77	5.33078
1290.94	1.59714
1291.11	1.27872
1291.28	4.17627
1291.44	1.05862
1291.61	2.22275
1291.78	3.95673
1291.95	1.11838
1292.12	3.60934
1292.29	1.48541
1292.45	-1.19748
1292.62	2.1084
1292.79	-2.44394
1292.96	2.88626
1293.13	0.241272
1293.3	2.09573
1293.46	2.13254
1293.63	3.54446
1293.8	-1.62592
1293.97	-0.990631
1294.14	5.46942
1294.3	-3.43408
1294.47	3.29504
1294.64	3.19534
1294.81	4.14993
1294.98	0.599274
1295.15	-0.576569
1295.31	5.87018
1295.48	-2.62137
1295.65	2.4483
1295.82	-0.928833
1295.99	5.74237
1296.15	2.61499
1296.32	-0.707428
1296.49	-0.400116
1296.66	-1.86624
1296.83	3.6683
1296.99	1.02078
1297.16	-3.12015
1297.33	0.469421
1297.5	4.08963
1297.67	2.82751
1297.83	0.970734
1298	-0.828735
1298.17	4.72562
1298.34	1.84216
1298.51	2.07584
1298.67	3.48758
1298.84	6.4061
1299.01	1.15216
1299.18	4.59497
1299.35	-0.287598
1299.52	1.84348
1299.68	-1.44061
1299.85	-0.987366
1300.02	3.43552
1300.19	-3.83301
1300.36	-1.07083
1300.52	1.51709
1300.69	-0.72226
1300.86	2.83398
1301.03	-0.843018
1301.19	1.19684
1301.36	-2.20819
1301.53	0.0768433
1301.7	-4.98651
1301.87	-1.13663
1302.03	1.19315
1302.2	5.91803
1302.37	2.84561
1302.54	-0.834381
1302.71	1.58276
1302.87	-1.89688
1303.04	3.98129
1303.21	-0.0902405
1303.38	3.00436
1303.54	-1.72781
1303.71	-1.25446
1303.88	-4.08859
1304.05	1.49332
1304.21	-0.408539
1304.38	4.37851
1304.55	-2.87967
1304.72	2.92944
1304.89	0.491882
1305.05	-5.45673
1305.22	6.22668
1305.39	-0.748199
1305.56	-1.95712
1305.72	1.69162
1305.89	0.636475
1306.06	6.9422
1306.23	-4.04758
1306.4	-5.35962
1306.56	-1.36465
1306.73	-0.0731506
1306.9	-1.19919
1307.07	0.653442
1307.23	-0.135498
1307.4	-2.20517
1307.57	0.636963
1307.74	2.68854
1307.9	-1.70258
1308.07	4.01022
1308.24	2.66049
1308.41	2.35501
1308.57	4.20804
1308.74	-0.539307
1308.91	-0.663116
1309.08	-1.30392
1309.24	3.85825
1309.41	-0.089447
1309.58	6.17993
1309.75	6.67749
1309.91	-5.0463
1310.08	0.806335
1310.25	-0.184998
1310.42	-4.31921
1310.58	-0.953461
1310.75	0.374451
1310.92	0.352417
1311.09	-4.32913
1311.25	0.00717163
1311.42	4.25873
1311.59	-2.59158
1311.76	-2.48184
1311.92	-1.42026
1312.09	-3.80347
1312.26	2.27768
1312.43	-0.765747
1312.59	-3.24039
1312.76	-0.935669
1312.93	2.31573
1313.1	4.18054
1313.26	-4.16821
1313.43	1.21161
1313.6	-2.09583
1313.77	-2.21698
1313.93	2.31299
1314.1	2.68143
1314.27	-1.45621
1314.43	0.275543
1314.6	2.49118
1314.77	-1.70261
1314.94	1.4064
1315.1	4.91068
1315.27	2.17004
1315.44	-0.0172729
1315.61	1.88351
1315.77	0.310608
1315.94	-0.154663
1316.11	-1.55646
1316.28	5.07138
1316.44	-3.83472
1316.61	0.591003
1316.78	-0.353821
1316.94	6.16992
1317.11	1.74606
1317.28	-0.467346
1317.45	-4.74274
1317.61	1.17618
1317.78	1.3335
1317.95	2.26001
1318.12	1.10068
1318.28	0.0463867
1318.45	1.31317
1318.62	0.77887
1318.78	8.97113
1318.95	2.02917
1319.12	-1.95316
1319.28	2.26022
1319.45	-0.159454
1319.62	2.39215
1319.79	2.67673
1319.95	2.54672
1320.12	0.506683
1320.29	1.8577
1320.45	5.33966
1320.62	-1.43121
1320.79	6.78394
1320.95	-2.57755
1321.12	3.23856
1321.29	-3.9762
1321.46	5.98276
1321.62	3.11655
1321.79	2.69437
1321.96	1.38397
1322.12	-1.23816
1322.29	-0.0699768
1322.46	-2.03085
1322.63	-1.94693
1322.79	-0.815887
1322.96	3.34534
1323.13	-2.80255
1323.29	2.07156
1323.46	1.98447
1323.63	-1.07932
1323.79	6.51807
1323.96	8.97211
1324.13	-4.59045
1324.3	1.58755
1324.46	4.80594
1324.63	-0.458252
1324.8	-0.109711
1324.96	3.52267
1325.13	4.28952
1325.3	2.05289
1325.46	-3.13831
1325.63	-0.0749207
1325.8	5.35675
1325.96	1.65234
1326.13	-3.99356
1326.3	3.35773
1326.46	-1.74655
1326.63	6.37537
1326.8	5.5817
1326.96	1.28577
1327.13	0.452881
1327.3	7.99268
1327.47	8.34439
1327.63	-0.637024
1327.8	0.813599
1327.97	-2.93185
1328.13	1.53278
1328.3	10.6581
1328.47	2.36917
1328.63	9.05087
1328.8	2.79742
1328.97	2.77798
1329.13	-0.0155334
1329.3	4.65396
1329.47	2.03555
1329.63	5.65634
1329.8	4.26801
1329.97	2.70544
1330.13	5.16608
1330.3	1.66772
1330.47	4.96164
1330.63	9.27469
1330.8	3.6897
1330.97	6.28894
1331.13	0.294464
1331.3	2.79691
1331.46	5.17227
1331.63	3.12024
1331.8	9.91663
1331.96	5.9072
1332.13	2.36707
1332.3	4.38284
1332.46	-0.282471
1332.63	2.07925
1332.8	5.58487
1332.96	1.99576
1333.13	1.68805
1333.3	3.50821
1333.46	9.75671
1333.63	-1.2861
1333.8	6.35388
1333.96	6.48996
1334.13	10.274
1334.3	6.33511
1334.46	6.74438
1334.63	3.92783
1334.8	1.08066
1334.96	7.17392
1335.13	5.34976
1335.29	6.3222
1335.46	10.7176
1335.63	2.11813
1335.79	5.58395
1335.96	7.69705
1336.13	8.56723
1336.29	1.35776
1336.46	7.27591
1336.63	1.22055
1336.79	8.86856
1336.96	1.47037
1337.13	8.83725
1337.29	8.97104
1337.46	1.6322
1337.62	-2.7251
1337.79	6.71423
1337.96	6.27618
1338.12	12.1451
1338.29	0.331696
1338.46	5.87509
1338.62	-0.0489197
1338.79	5.09253
1338.96	2.08017
1339.12	5.11768
1339.29	6.59613
1339.45	3.61884
1339.62	1.13956
1339.79	5.28531
1339.95	8.63708
1340.12	1.56934
1340.28	5.33951
1340.45	2.06897
1340.62	7.87311
1340.78	6.64325
1340.95	2.53171
1341.12	4.06735
1341.28	3.36444
1341.45	7.14908
1341.61	4.77628
1341.78	3.93799
1341.95	6.26352
1342.11	10.7212
1342.28	3.70074
1342.44	6.73615
1342.61	5.38562
1342.78	4.41156
1342.94	10.7269
1343.11	0.449036
1343.28	6.7746
1343.44	3.77551
1343.61	6.74844
1343.77	4.59567
1343.94	6.71985
1344.11	10.0095
1344.27	7.07303
1344.44	4.93942
1344.6	-0.168091
1344.77	6.25772
1344.94	5.08398
1345.1	4.06369
1345.27	14.7742
1345.43	3.4173
1345.6	7.67343
1345.77	5.86172
1345.93	5.409
1346.1	6.25623
1346.27	7.62225
1346.43	7.28186
1346.6	3.63385
1346.76	4.93317
1346.93	2.87097
1347.09	2.784
1347.26	0.685364
1347.43	2.20462
1347.59	6.04651
1347.76	8.11682
1347.92	13.5375
1348.09	3.73322
1348.26	1.50656
1348.42	1.49399
1348.59	7.76669
1348.75	2.11322
1348.92	10.2733
1349.08	7.76962
1349.25	12.1268
1349.42	7.38635
1349.58	6.49973
1349.75	2.77917
1349.91	2.51865
1350.08	2.19431
1350.25	5.67303
1350.41	7.24518
1350.58	4.53265
1350.74	11.2531
1350.91	10.1554
1351.07	5.39917
1351.24	10.9968
1351.41	9.80621
1351.57	12.7888
1351.74	8.4118
1351.9	11.4523
1352.07	7.77386
1352.24	9.31534
1352.4	9.50095
1352.57	9.62863
1352.73	8.7525
1352.9	9.52615
1353.06	3.75787
1353.23	4.62674
1353.4	9.35019
1353.56	10.0638
1353.73	9.50992
1353.89	9.00226
1354.06	6.80005
1354.22	8.05069
1354.39	11.6621
1354.55	4.34042
1354.72	6.48218
1354.88	3.85141
1355.05	10.3075
1355.22	5.9855
1355.38	1.37405
1355.55	4.56216
1355.71	3.97113
1355.88	3.01791
1356.04	12.374
1356.21	13.0259
1356.38	7.96875
1356.54	5.43729
1356.71	7.15836
1356.87	9.39206
1357.04	6.89136
1357.2	5.45294
1357.37	10.2978
1357.53	14.553
1357.7	4.3154
1357.86	8.90039
1358.03	9.63385
1358.2	14.9258
1358.36	13.2134
1358.53	7.53513
1358.69	5.3472
1358.86	7.90222
1359.02	9.8945
1359.19	9.62143
1359.35	8.95114
1359.52	10.0733
1359.69	14.3066
1359.85	9.16592
1360.02	14.5341
1360.18	2.87418
1360.35	13.139
1360.51	6.15964
1360.68	7.73624
1360.84	13.5855
1361.01	6.65253
1361.17	9.03931
1361.34	6.16016
1361.5	10.8932
1361.67	9.78415
1361.83	5.12567
1362	9.82532
1362.17	8.08841
1362.33	12.2768
1362.49	4.33179
1362.66	10.432
1362.83	8.6875
1362.99	6.7973
1363.16	11.0772
1363.32	7.37689
1363.49	1.65439
1363.65	9.49814
1363.82	4.9798
1363.98	1.63162
1364.15	5.68857
1364.31	4.12109
1364.48	6.31488
1364.64	4.68686
1364.81	9.01349
1364.97	12.1814
1365.14	10.4813
1365.3	1.13596
1365.47	8.04108
1365.63	10.7227
1365.8	9.59375
1365.97	10.5081
1366.13	7.45782
1366.29	6.05914
1366.46	5.33029
1366.63	7.00876
1366.79	7.89603
1366.95	7.94537
1367.12	5.30661
1367.29	8.76047
1367.45	3.97672
1367.61	10.3958
1367.78	4.47513
1367.95	8.67831
1368.11	8.06326
1368.28	-0.693054
1368.44	11.1167
1368.61	11.2686
1368.77	6.11731
1368.94	9.57126
1369.1	1.5408
1369.27	7.64053
1369.43	9.0246
1369.6	7.55777
1369.76	11.4476
1369.93	8.18784
1370.09	6.83423
1370.25	11.2177
1370.42	8.72305
1370.59	9.01865
1370.75	8.84967
1370.91	5.20273
1371.08	10.241
1371.25	11.0845
1371.41	20.0212
1371.57	4.69611
1371.74	8.61594
1371.91	5.4841
1372.07	4.67831
1372.23	11.5453
1372.4	11.6713
1372.56	9.71655
1372.73	2.37912
1372.89	4.57394
1373.06	11.2991
1373.22	9.33362
1373.39	13.8832
1373.55	4.5257
1373.72	6.66846
1373.88	14.9791
1374.05	11.3754
1374.21	4.12283
1374.38	4.65036
1374.54	13.0096
1374.71	9.77988
1374.87	11.4903
1375.04	11.0273
1375.2	10.0497
1375.37	8.14816
1375.53	12.7344
1375.69	6.17697
1375.86	11.5948
1376.02	12.1223
1376.19	14.5171
1376.35	8.29013
1376.52	12.9677
1376.68	15.2502
1376.85	11.9649
1377.01	11.1195
1377.18	8.83752
1377.34	9.60596
1377.51	8.17065
1377.67	11.4965
1377.84	18.5208
1378	8.60782
1378.17	9.65033
1378.33	11.5023
1378.49	12.0809
1378.66	11.8225
1378.82	11.9183
1378.99	13.3282
1379.15	10.3499
1379.32	13.8651
1379.48	13.9008
1379.65	11.428
1379.81	3.82773
1379.97	17.7632
1380.14	10.6841
1380.3	10.4447
1380.47	5.77911
1380.63	12.263
1380.8	8.58151
1380.96	9.09818
1381.13	16.3523
1381.29	12.5305
1381.46	9.22421
1381.62	18.2242
1381.78	9.51462
1381.95	7.58624
1382.11	3.71405
1382.28	9.1207
1382.44	10.0067
1382.61	16.566
1382.77	15.7119
1382.94	11.2592
1383.1	10.6871
1383.26	12.7997
1383.43	14.3641
1383.59	11.184
1383.76	11.9728
1383.92	12.1728
1384.09	8.80661
1384.25	21.3591
1384.42	9.57877
1384.58	10.56
1384.74	10.9288
1384.91	10.2372
1385.07	20.3842
1385.24	17.8605
1385.4	10.6746
1385.56	9.45068
1385.73	10.9297
1385.89	16.6965
1386.06	17.8443
1386.22	13.8308
1386.39	21.6145
1386.55	21.8602
1386.72	24.7966
1386.88	28.7397
1387.04	35.9494
1387.21	39.7984
1387.37	58.7177
1387.54	74.1837
1387.7	61.4608
1387.86	37.6486
1388.03	29.7986
1388.19	25.5881
1388.36	16.5634
1388.52	16.0261
1388.68	15.1541
1388.85	10.9273
1389.01	11.6974
1389.18	5.57642
1389.34	2.6925
1389.51	3.84244
1389.67	9.22336
1389.83	7.38705
1390	7.71643
1390.16	14.757
1390.33	5.04633
1390.49	3.10788
1390.65	8.41129
1390.82	13.5418
1390.98	9.65512
1391.15	5.81329
1391.31	8.06375
1391.47	11.4846
1391.64	12.3559
1391.8	9.12201
1391.97	8.1925
1392.13	7.32306
1392.29	6.23044
1392.46	10.0716
1392.62	2.72858
1392.79	6.10315
1392.95	7.12482
1393.11	9.87234
1393.28	10.7227
1393.44	6.92331
1393.61	13.4083
1393.77	7.5824
1393.93	8.52728
1394.1	2.32578
1394.26	4.82416
1394.43	9.49631
1394.59	12.6629
1394.75	5.96777
1394.92	7.19879
1395.08	6.37775
1395.24	13.1046
1395.41	4.70123
1395.57	8.74146
1395.74	13.0519
1395.9	6.80829
1396.06	1.95282
1396.23	6.41287
1396.39	7.02991
1396.56	8.45407
1396.72	0.324402
1396.88	4.58551
1397.05	4.76132
1397.21	4.09067
1397.38	5.16907
1397.54	11.313
1397.7	7.85776
1397.87	10.6846
1398.03	6.36368
1398.19	3.68558
1398.36	11.7587
1398.52	0.338287
1398.69	4.73422
1398.85	6.65872
1399.01	9.64557
1399.18	3.49847
1399.34	4.4201
1399.5	2.66516
1399.67	7.16428
1399.83	-1.29245
1399.99	1.69241
1400.16	10.9807
1400.32	5.92975
1400.49	3.93619
1400.65	9.52063
1400.81	5.61682
1400.98	9.42319
1401.14	0.0354309
1401.3	9.28043
1401.47	8.21536
1401.63	1.00159
1401.8	4.41611
1401.96	6.58365
1402.12	9.72147
1402.28	5.44904
1402.45	5.49908
1402.61	6.55276
1402.78	2.75757
1402.94	0.556549
1403.1	6.31815
1403.27	4.70334
1403.43	7.75998
1403.59	-2.0032
1403.76	7.32156
1403.92	6.14175
1404.08	2.87054
1404.25	6.03229
1404.41	3.83984
1404.57	6.01532
1404.74	3.98932
1404.9	0.562988
1405.07	5.56522
1405.23	2.64014
1405.39	2.71472
1405.56	2.69504
1405.72	7.08395
1405.88	0.942352
1406.05	1.66434
1406.21	5.78702
1406.37	5.16119
1406.54	2.20776
1406.7	4.95187
1406.86	1.75131
1407.03	5.86221
1407.19	4.65915
1407.35	5.44308
1407.52	4.43945
1407.68	4.98163
1407.84	8.10114
1408.01	0.701172
1408.17	2.85156
1408.33	5.79489
1408.5	5.61731
1408.66	8.83554
1408.82	9.22501
1408.99	7.61987
1409.15	6.47852
1409.31	-1.22311
1409.48	6.06693
1409.64	6.4772
1409.8	16.1849
1409.97	4.44107
1410.13	2.68384
1410.29	8.7449
1410.45	-0.437592
1410.62	-0.310974
1410.78	-1.09204
1410.94	-0.106964
1411.11	6.06415
1411.27	3.93411
1411.43	3.80698
1411.6	3.14252
1411.76	4.42603
1411.92	4.85086
1412.09	10.9841
1412.25	-0.520691
1412.41	7.72849
1412.58	1.67255
1412.74	0.791107
1412.9	7.41702
1413.07	6.90131
1413.23	2.32635
1413.39	2.62247
1413.55	-0.254242
1413.72	1.00888
1413.88	6.30466
1414.04	2.3269
1414.21	5.22919
1414.37	3.698
1414.53	4.75076
1414.7	1.69208
1414.86	1.7319
1415.02	4.25293
1415.19	5.9751
1415.35	6.99237
1415.51	2.06079
1415.67	12.3802
1415.84	9.97043
1416	0.601349
1416.16	5.3381
1416.33	6.80042
1416.49	2.05569
1416.65	4.24274
1416.82	5.96494
1416.98	2.56839
1417.14	2.1145
1417.3	5.54263
1417.47	3.08429
1417.63	7.51425
1417.79	3.84317
1417.96	1.46725
1418.12	0.885956
1418.28	3.94879
1418.44	5.83328
1418.61	-0.320953
1418.77	3.28171
1418.93	1.77567
1419.1	5.19608
1419.26	7.33154
1419.42	5.53729
1419.58	3.20398
1419.75	1.28259
1419.91	5.31628
1420.07	4.24426
1420.24	3.14169
1420.4	7.00018
1420.56	1.73218
1420.72	8.43066
1420.89	7.98141
1421.05	6.65628
1421.21	0.389771
1421.37	9.56061
1421.54	6.4938
1421.7	9.25998
1421.86	2.08777
1422.03	4.95422
1422.19	5.01736
1422.35	7.28787
1422.51	2.46924
1422.68	1.85394
1422.84	2.099
1423	5.6265
1423.16	6.27304
1423.33	3.92484
1423.49	6.31155
1423.65	3.25864
1423.82	1.10504
1423.98	5.94958
1424.14	5.366
1424.3	5.06281
1424.47	5.86639
1424.63	8.17871
1424.79	1.21951
1424.95	1.84521
1425.12	1.99823
1425.28	5.94357
1425.44	6.96173
1425.6	4.51013
1425.77	-0.450745
1425.93	2.74561
1426.09	1.9931
1426.25	9.26587
1426.42	3.82565
1426.58	5.98215
1426.74	5.95941
1426.9	7.13791
1427.07	12.4914
1427.23	7.39676
1427.39	11.8527
1427.55	8.59509
1427.72	9.59372
1427.88	2.27853
1428.04	4.09152
1428.2	6.91989
1428.37	5.27271
1428.53	7.39371
1428.69	9.56683
1428.85	6.66708
1429.02	12.0439
1429.18	3.10117
1429.34	4.60687
1429.5	5.8866
1429.67	13.8024
1429.83	4.92776
1429.99	5.89484
1430.15	7.23627
1430.32	-0.301575
1430.48	3.60544
1430.64	7.92657
1430.8	5.97968
1430.97	7.2438
1431.13	8.57834
1431.29	12.6844
1431.45	0.0279846
1431.61	10.3618
1431.78	1.88226
1431.94	8.59637
1432.1	6.37396
1432.26	6.32275
1432.42	7.13187
1432.59	3.30389
1432.75	5.26288
1432.91	9.78229
1433.07	8.23215
1433.24	1.91412
1433.4	9.4454
1433.56	7.33649
1433.72	2.25842
1433.89	8.19144
1434.05	6.827
1434.21	4.91342
1434.37	4.31152
1434.53	7.31152
1434.7	5.20053
1434.86	6.99545
1435.02	4.78107
1435.18	0.871368
1435.34	8.34351
1435.51	6.74899
1435.67	7.19272
1435.83	3.47211
1435.99	8.61383
1436.16	6.16074
1436.32	6.03473
1436.48	2.54095
1436.64	5.85364
1436.8	7.91736
1436.97	7.60321
1437.13	8.60309
1437.29	8.94632
1437.45	5.13904
1437.62	5.10382
1437.78	6.66599
1437.94	4.93759
1438.1	5.51236
1438.26	5.25839
1438.43	3.22546
1438.59	2.84277
1438.75	5.99976
1438.91	9.23453
1439.07	5.57642
1439.23	9.63858
1439.4	10.8972
1439.56	9.65118
1439.72	6.5722
1439.88	6.29422
1440.04	0.832642
1440.21	7.21201
1440.37	9.73264
1440.53	1.95917
1440.69	6.79797
1440.85	-0.258575
1441.02	0.735229
1441.18	8.32285
1441.34	4.18338
1441.5	8.73828
1441.66	8.13708
1441.83	5.64462
1441.99	2.11414
1442.15	2.58694
1442.31	8.87244
1442.47	4.92822
1442.64	0.582794
1442.8	11.278
1442.96	2.69107
1443.12	3.88196
1443.28	3.79532
1443.44	6.59906
1443.61	3.20633
1443.77	3.85208
1443.93	2.64612
1444.09	8.9559
1444.25	12.2882
1444.42	2.02576
1444.58	3.16861
1444.74	7.82568
1444.9	10.2915
1445.06	12.4334
1445.22	14.4812
1445.39	7.76465
1445.55	4.02856
1445.71	3.10974
1445.87	7.45117
1446.03	5.61835
1446.19	6.90414
1446.36	3.177
1446.52	8.20569
1446.68	7.24808
1446.84	7.35391
1447	3.11719
1447.16	1.37936
1447.33	6.08664
1447.49	0.164154
1447.65	7.6564
1447.81	7.57159
1447.97	2.96753
1448.13	4.71973
1448.29	12.3296
1448.46	-0.327698
1448.62	3.32654
1448.78	2.33566
1448.94	0.161011
1449.1	3.30084
1449.26	2.51572
1449.43	1.72537
1449.59	8.84305
1449.75	12.1526
1449.91	3.65787
1450.07	6.21304
1450.23	4.65576
1450.39	0.0252075
1450.56	3.28949
1450.72	9.20844
1450.88	3.22192
1451.04	3.76746
1451.2	6.60907
1451.36	5.86951
1451.53	7.12366
1451.69	5.88416
1451.85	6.11459
1452.01	6.28256
1452.17	10.1981
1452.33	5.72415
1452.49	5.311
1452.66	4.59128
1452.82	6.18661
1452.98	4.6449
1453.14	7.60867
1453.3	2.91049
1453.46	3.43423
1453.62	6.26349
1453.78	9.39789
1453.95	4.32977
1454.11	4.36292
1454.27	3.88467
1454.43	-0.35553
1454.59	3.43039
1454.75	5.12384
1454.91	4.95029
1455.07	7.51694
1455.24	7.38449
1455.4	3.73575
1455.56	6.1846
1455.72	3.3667
1455.88	4.16876
1456.04	8.03641
1456.2	6.05075
1456.36	7.73395
1456.53	2.07855
1456.69	2.3013
1456.85	0.57843
1457.01	5.50543
1457.17	5.1131
1457.33	6.66354
1457.49	5.61017
1457.66	1.9313
1457.82	6.03967
1457.98	10.7086
1458.14	4.90024
1458.3	3.39673
1458.46	3.60706
1458.62	4.20251
1458.78	2.78613
1458.94	3.02917
1459.11	5.64413
1459.27	4.39026
1459.43	7.00464
1459.59	1.59683
1459.75	1.33371
1459.91	4.98013
1460.07	4.33438
1460.23	2.6026
1460.39	2.63095
1460.55	4.32922
1460.72	5.55844
1460.88	-0.54837
1461.04	5.94824
1461.2	5.66794
1461.36	7.75153
1461.52	2.97943
1461.68	4.10123
1461.84	4.78101
1462	2.8913
1462.17	6.67188
1462.33	1.97742
1462.49	1.74561
1462.65	3.6918
1462.81	0.838837
1462.97	7.90027
1463.13	1.99689
1463.29	3.95233
1463.45	5.44476
1463.61	6.82465
1463.77	0.567963
1463.94	1.26575
1464.1	1.58228
1464.26	2.21939
1464.42	-0.006073
1464.58	3.07816
1464.74	3.08212
1464.79	2.32495
1464.95	-1.25162
1465.12	2.79034
1465.28	4.33173
1465.44	1.61685
1465.61	4.8139
1465.77	0.318054
1465.93	6.76004
1466.1	0.320801
1466.26	6.47812
1466.42	1.07352
1466.59	2.8587
1466.75	2.4248
1466.92	4.1011
1467.08	3.29001
1467.24	-0.491974
1467.41	-2.43182
1467.57	0.147125
1467.73	3.37286
1467.9	3.38983
1468.06	4.07211
1468.22	1.50525
1468.39	-1.44952
1468.55	0.431671
1468.71	-0.79776
1468.88	5.09177
1469.04	2.31369
1469.2	-0.140411
1469.37	-1.0441
1469.53	-1.30536
1469.69	-0.959564
1469.86	0.455353
1470.02	2.32852
1470.18	3.30142
1470.35	4.37714
1470.51	-2.52353
1470.67	5.84729
1470.84	0.125824
1471	1.07489
1471.16	1.48492
1471.33	-0.964905
1471.49	1.46881
1471.65	5.40079
1471.81	1.41385
1471.98	0.732635
1472.14	-0.209503
1472.3	0.324738
1472.47	2.737
1472.63	1.18524
1472.79	1.27905
1472.96	1.99417
1473.12	0.866608
1473.28	3.09033
1473.45	6.19894
1473.61	1.06683
1473.77	3.3913
1473.94	-0.228973
1474.1	1.10178
1474.26	-0.437012
1474.43	3.72
1474.59	1.98547
1474.75	2.03671
1474.92	3.28165
1475.08	1.69995
1475.24	1.6723
1475.4	1.20773
1475.57	-2.29617
1475.73	1.63754
1475.89	-2.49326
1476.06	-0.208984
1476.22	4.44504
1476.38	5.83588
1476.55	1.37308
1476.71	-0.172394
1476.87	3.98434
1477.04	0.885742
1477.2	11.9368
1477.36	1.39987
1477.52	4.75974
1477.69	2.56229
1477.85	1.78711
1478.01	3.72787
1478.18	-2.5625
1478.34	-3.71033
1478.5	2.5199
1478.66	-2.61719
1478.83	6.07526
1478.99	1.9859
1479.15	5.91852
1479.32	5.61957
1479.48	-0.530762
1479.64	-0.159058
1479.8	0.220245
1479.97	0.442505
1480.13	-0.903503
1480.29	2.495
1480.46	2.34262
1480.62	1.87531
1480.78	6.20609
1480.95	-0.415131
1481.11	1.78693
1481.27	4.96603
1481.43	-0.720825
1481.6	3.33252
1481.76	-1.79553
1481.92	-1.77948
1482.08	-0.000427246
1482.25	8.28598
1482.41	1.78369
1482.57	-2.14877
1482.74	-0.995331
1482.9	5.00525
1483.06	6.95856
1483.22	0.437042
1483.39	1.96036
1483.55	1.2995
1483.71	-2.22104
1483.88	-0.566589
1484.04	6.7384
1484.2	3.0361
1484.36	2.28085
1484.53	2.6402
1484.69	-4.08066
1484.85	4.79916
1485.01	-1.24866
1485.18	1.41583
1485.34	-1.19217
1485.5	0.488373
1485.66	5.24017
1485.83	1.28824
1485.99	-0.909576
1486.15	-0.305298
1486.32	1.87045
1486.48	-4.58936
1486.64	1.29483
1486.8	3.27292
1486.96	-2.22549
1487.13	-0.0230408
1487.29	-0.9935
1487.45	2.45285
1487.62	-2.31848
1487.78	2.89136
1487.94	-0.24765
1488.1	0.495178
1488.27	-0.607056
1488.43	-2.81732
1488.59	-1.76431
1488.75	0.808472
1488.92	1.28754
1489.08	4.19482
1489.24	0.474121
1489.4	1.11292
1489.57	3.3353
1489.73	-3.71674
1489.89	-1.35291
1490.05	1.13644
1490.22	1.38855
1490.38	3.29745
1490.54	-0.123657
1490.7	2.17227
1490.87	5.80402
1491.03	1.24643
1491.19	1.952
1491.35	-2.20721
1491.52	-3.11694
1491.68	-5.02777
1491.84	0.27475
1492	3.21527
1492.16	-2.83774
1492.33	-1.54623
1492.49	0.336212
1492.65	4.21927
1492.81	2.43851
1492.98	-1.38779
1493.14	-0.247742
1493.3	-2.20648
1493.46	-0.907837
1493.63	1.25806
1493.79	3.13641
1493.95	1.2236
1494.11	8.07144
1494.28	-0.0451355
1494.44	-2.83707
1494.6	3.18893
1494.76	-4.64426
1494.92	-0.473999
1495.09	1.67905
1495.25	-1.65863
1495.41	-0.066864
1495.57	0.380096
1495.73	-0.904419
1495.9	3.11798
1496.06	3.36142
1496.22	0.638763
1496.38	-1.54135
1496.55	1.91281
1496.71	1.87778
1496.87	3.40326
1497.03	1.59772
1497.2	0.745605
1497.36	2.15686
1497.52	-2.27448
1497.68	-2.94864
1497.84	0.356476
1498.01	0.507751
1498.17	0.564728
1498.33	-0.573303
1498.49	-0.479462
1498.65	2.61163
1498.82	-1.43384
1498.98	0.886627
1499.14	-3.34326
1499.3	0.812714
1499.46	-1.82623
1499.63	-1.00342
1499.79	-1.31213
1499.95	-2.61847
1500.11	1.66934
1500.28	-0.327545
1500.44	-0.204315
1500.6	-0.282532
1500.76	-1.35196
1500.92	3.61719
1501.09	1.30377
1501.25	-2.26987
1501.41	0.949951
1501.57	2.59003
1501.73	-0.425598
1501.89	-4.33496
1502.06	-1.5405
1502.22	-0.198151
1502.38	-0.0395813
1502.54	-3.74435
1502.7	1.52676
1502.87	4.23108
1503.03	0.943909
1503.19	-2.76392
1503.35	-0.301239
1503.51	-1.51157
1503.68	1.14444
1503.84	-0.946869
1504	3.13431
1504.16	3.56137
1504.32	0.896515
1504.49	-1.5437
1504.65	-2.04694
1504.81	10.2543
1504.97	2.50928
1505.13	0.0527039
1505.29	3.23834
1505.46	-2.04523
1505.62	-2.3573
1505.78	-2.22122
1505.94	-4.65924
1506.1	3.09869
1506.26	0.821686
1506.43	-0.0506592
1506.59	-1.38321
1506.75	3.40839
1506.91	-1.92227
1507.07	3.79175
1507.24	0.370972
1507.4	-1.72974
1507.56	-0.648682
1507.72	-1.19717
1507.88	0.537994
1508.04	-1.39182
1508.21	-0.595978
1508.37	0.380737
1508.53	0.127319
1508.69	-2.05411
1508.85	3.62704
1509.02	0.313049
1509.18	5.67517
1509.34	-1.51431
1509.5	1.37973
1509.66	2.65799
1509.82	2.04578
1509.98	1.27356
1510.15	-1.70108
1510.31	3.5015
1510.47	2.60422
1510.63	0.529999
1510.79	0.608185
1510.95	-0.603577
1511.12	1.82516
1511.28	-1.42569
1511.44	-1.83136
1511.6	2.72894
1511.76	-1.29697
1511.92	-2.08032
1512.08	2.75845
1512.25	0.0856934
1512.41	-3.99277
1512.57	3.15613
1512.73	0.773102
1512.89	1.70358
1513.05	3.50983
1513.22	-4.48322
1513.38	3.56186
1513.54	-3.57629
1513.7	-1.33157
1513.86	0.679382
1514.02	1.88397
1514.18	-0.155762
1514.35	0.0274658
1514.51	-0.858246
1514.67	7.76889
1514.83	1.37268
1514.99	1.33679
1515.15	0.442444
1515.31	-4.70432
1515.48	-2.34067
1515.64	1.81851
1515.8	2.23883
1515.96	2.16525
1516.12	-0.816223
1516.28	2.79694
1516.44	3.9866
1516.6	2.31497
1516.77	-3.46347
1516.93	1.76758
1517.09	4.14383
1517.25	0.0744019
1517.41	0.836517
1517.57	3.14731
1517.73	2.75644
1517.9	-0.998291
1518.06	-2.04584
1518.22	4.57596
1518.38	-0.807892
1518.54	1.05026
1518.7	4.6272
1518.86	9.10007
1519.02	-2.2449
1519.19	-2.03876
1519.35	-0.858063
1519.51	3.42407
1519.67	6.80316
1519.83	-2.60471
1519.99	1.71747
1520.15	1.74371
1520.32	0.0366516
1520.48	-0.0948486
1520.64	3.45331
1520.8	2.4664
1520.96	-3.32693
1521.12	6.93408
1521.28	3.24414
1521.44	-1.8808
1521.6	-3.13818
1521.76	-3.823
1521.93	1.4566
1522.09	3.18979
1522.25	2.543
1522.41	4.05215
1522.57	4.88574
1522.73	0.717712
1522.89	0.50766
1523.05	0.87796
1523.21	-1.57669
1523.38	3.03455
1523.54	7.58063
1523.7	-1.44852
1523.86	-5.36368
1524.02	0.182678
1524.18	4.16119
1524.34	3.30112
1524.5	1.0799
1524.66	-1.10596
1524.82	1.42404
1524.99	2.02359
1525.15	4.31845
1525.31	5.84363
1525.47	5.46109
1525.63	1.07614
1525.79	3.62817
1525.95	0.154266
1526.11	5.00943
1526.27	3.11304
1526.43	4.49472
1526.6	0.22699
1526.76	-2.76913
1526.92	-0.603882
1527.08	4.67078
1527.24	2.27774
1527.4	5.10803
1527.56	-1.43799
1527.72	5.19147
1527.88	2.46332
1528.04	3.6474
1528.2	-1.64609
1528.37	-0.635742
1528.53	-2.66922
1528.69	6.13968
1528.85	-0.030304
1529.01	2.06686
1529.17	-1.14761
1529.33	3.54034
1529.49	-0.0399475
1529.65	-0.326569
1529.81	1.93625
1529.97	1.53754
1530.13	1.90369
1530.3	2.00845
1530.46	2.53812
1530.62	1.34814
1530.78	1.03098
1530.94	-2.18875
1531.1	0.697693
1531.26	0.798401
1531.42	0.446655
1531.58	2.45184
1531.74	0.193542
1531.9	2.27423
1532.06	6.50684
1532.22	-1.07755
1532.38	0.0201721
1532.55	4.89713
1532.71	2.20963
1532.87	1.8436
1533.03	1.90994
1533.19	5.91711
1533.35	3.12415
1533.51	8.5929
1533.67	4.20233
1533.83	3.26843
1533.99	2.62335
1534.15	2.29718
1534.31	3.25238
1534.47	-1.57956
1534.63	1.41528
1534.79	-1.84409
1534.95	0.234558
1535.12	4.74606
1535.28	2.00266
1535.44	4.12885
1535.6	3.8364
1535.76	0.779144
1535.92	2.44327
1536.08	3.61429
1536.24	0.195801
1536.4	0.814667
1536.56	1.15811
1536.72	0.069519
1536.88	3.91714
1537.04	3.02206
1537.2	4.72321
1537.36	2.17407
1537.52	1.57596
1537.68	1.99115
1537.84	5.89914
1538	-1.05307
1538.16	5.92068
1538.32	3.74988
1538.49	1.71048
1538.65	3.06961
1538.81	6.76111
1538.97	3.50574
1539.13	2.66904
1539.29	3.72836
1539.45	4.76059
1539.61	5.33862
1539.77	2.1535
1539.93	0.941589
1540.09	2.70688
1540.25	-1.81717
1540.41	1.54364
1540.57	4.98285
1540.73	1.21317
1540.89	-0.0349731
1541.05	5.91373
1541.21	-1.21231
1541.37	0.435699
1541.53	-1.94717
1541.69	4.10867
1541.85	-0.205505
1542.01	6.04022
1542.17	0.488586
1542.33	4.32794
1542.49	2.14606
1542.65	4.00784
1542.81	5.36737
1542.97	2.67343
1543.13	4.78265
1543.29	3.19821
1543.46	0.658051
1543.62	2.97107
1543.78	0.069519
1543.94	5.487
1544.1	3.22211
1544.26	2.9985
1544.42	-1.75204
1544.58	3.36981
1544.74	8.74231
1544.9	0.552734
1545.06	6.19232
1545.22	6.11172
1545.38	4.08279
1545.54	5.05325
1545.7	4.75333
1545.86	3.36832
1546.02	8.93674
1546.18	3.17776
1546.34	3.42114
1546.5	4.16629
1546.66	1.65649
1546.82	0.229187
1546.98	2.30701
1547.14	1.99683
1547.3	-0.880707
1547.46	0.861877
1547.62	0.242828
1547.78	3.14459
1547.94	2.79251
1548.1	7.15533
1548.26	3.60062
1548.42	3.86148
1548.58	-2.21695
1548.74	3.49524
1548.9	7.94745
1549.06	1.27518
1549.22	5.77234
1549.38	7.4126
1549.54	1.00821
1549.7	4.64581
1549.86	0.500397
1550.02	1.62955
1550.18	8.19565
1550.34	7.24338
1550.5	2.11874
1550.66	0.992065
1550.82	1.10501
1550.98	3.61621
1551.14	4.5788
1551.3	3.81772
1551.46	3.45105
1551.62	2.55292
1551.78	3.16101
1551.94	0.356506
1552.1	8.76678
1552.26	7.11151
1552.42	6.51682
1552.58	7.48886
1552.74	6.56552
1552.9	-1.33295
1553.06	2.11197
1553.22	5.37299
1553.38	1.72839
1553.54	-1.12274
1553.69	3.67334
1553.85	4.31567
1554.01	-0.26886
1554.17	2.19339
1554.33	2.1546
1554.49	0.316986
1554.65	9.29504
1554.81	10.3739
1554.97	0.716705
1555.13	9.49875
1555.29	4.95657
1555.45	1.78506
1555.61	9.80197
1555.77	2.41815
1555.93	1.3378
1556.09	4.20175
1556.25	4.91666
1556.41	2.30945
1556.57	-0.570435
1556.73	7.54092
1556.89	4.75812
1557.05	8.19736
1557.21	2.56216
1557.37	2.07983
1557.53	-0.830048
1557.69	1.4707
1557.85	3.84882
1558.01	0.718445
1558.17	9.72568
1558.33	6.27353
1558.48	0.635315
1558.64	7.4035
1558.8	6.21405
1558.96	7.34973
1559.12	0.931213
1559.28	4.55084
1559.44	8.39624
1559.6	4.73874
1559.76	4.9639
1559.92	4.82617
1560.08	0.745422
1560.24	10.4582
1560.4	2.97623
1560.56	2.04303
1560.72	0.593567
1560.88	2.44089
1561.04	3.15564
1561.2	-0.704865
1561.36	5.98434
1561.52	3.83887
1561.68	4.88385
1561.84	2.09854
1561.99	6.27777
1562.15	3.48343
1562.31	2.07294
1562.47	8.255
1562.63	7.04178
1562.79	1.49509
1562.95	1.41342
1563.11	1.28046
1563.27	1.21185
1563.43	-0.487549
1563.59	1.21182
1563.75	-2.6702
1563.91	1.25949
1564.07	7.37915
1564.23	2.19955
1564.38	-1.31921
1564.54	3.43539
1564.7	3.29581
1564.86	10.1711
1565.02	3.58301
1565.18	5.66016
1565.34	3.91821
1565.5	4.68097
1565.66	1.87085
1565.82	3.24759
1565.98	1.42642
1566.14	2.68738
1566.3	0.455231
1566.46	1.58182
1566.61	0.0342712
1566.77	1.55762
1566.93	2.45044
1567.09	-2.01361
1567.25	4.43289
1567.41	13.1234
1567.57	1.88571
1567.73	1.82401
1567.89	4.93948
1568.05	1.82782
1568.21	6.03482
1568.37	1.1398
1568.53	8.63678
1568.68	0.741669
1568.84	6.31436
1569	3.17255
1569.16	0.635376
1569.32	-0.029541
1569.48	1.41162
1569.64	5.21158
1569.8	2.13568
1569.96	5.00775
1570.12	1.561
1570.28	6.74658
1570.43	-0.305023
1570.59	6.65338
1570.75	-1.93948
1570.91	0.643921
1571.07	4.62857
1571.23	2.88754
1571.39	-4.2265
1571.55	3.90939
1571.71	5.32355
1571.86	4.26151
1572.02	-1.80396
1572.18	1.74667
1572.34	8.83615
1572.5	3.6825
1572.66	2.5076
1572.82	2.8511
1572.98	2.11856
1573.14	5.22043
1573.3	0.398407
1573.46	7.09692
1573.61	3.7518
1573.77	-1.84085
1573.93	1.35114
1574.09	1.24667
1574.25	6.37411
1574.41	6.90225
1574.57	9.7655
1574.73	-2.94656
1574.89	2.13818
1575.04	-0.260437
1575.2	-2.95108
1575.36	4.06445
1575.52	-1.61862
1575.68	0.442352
1575.84	-1.70663
1576	-1.61084
1576.16	4.41379
1576.31	5.24652
1576.47	4.10345
1576.63	-1.50562
1576.79	-0.589691
1576.95	-2.01013
1577.11	1.90189
1577.27	-0.931946
1577.43	-1.82614
1577.58	1.20682
1577.74	6.70316
1577.9	0.74408
1578.06	-3.65811
1578.22	4.33267
1578.38	5.9093
1578.54	-0.871307
1578.7	2.40607
1578.86	-0.686951
1579.01	0.560669
1579.17	7.09705
1579.33	3.19452
1579.49	2.1842
1579.65	-1.63397
1579.81	5.32321
1579.97	3.63535
1580.13	0.683228
1580.28	6.8974
1580.44	2.5975
1580.6	2.80414
1580.76	1.50998
1580.92	2.68924
1581.08	3.70059
1581.24	-0.186707
1581.39	-0.735504
1581.55	0.782532
1581.71	2.67426
1581.87	0.5271
1582.03	3.66418
1582.19	-0.278381
1582.34	-2.15338
1582.5	-1.06497
1582.66	-2.52097
1582.82	0.0242004
1582.98	0.795166
1583.14	2.95389
1583.3	6.84845
1583.46	-1.33926
1583.61	3.69016
1583.77	1.96979
1583.93	5.11316
1584.09	0.606354
1584.25	4.14603
1584.41	5.26086
1584.57	-1.12866
1584.72	1.10342
1584.88	0.845947
1585.04	-0.814514
1585.2	5.69135
1585.36	3.70239
1585.52	-0.519562
1585.67	2.61743
1585.83	-1.69946
1585.99	0.750671
1586.15	0.37561
1586.31	1.38083
1586.47	0.420349
1586.62	1.61966
1586.78	-0.568665
1586.94	1.64743
1587.1	-0.781921
1587.26	1.8269
1587.42	-1.3793
1587.57	2.67798
1587.73	1.44836
1587.89	0.764099
1588.05	0.914703
1588.21	4.84109
1588.37	-1.64883
1588.52	0.44043
1588.68	-2.02859
1588.84	-1.75006
1589	-1.07477
1589.16	-1.05176
1589.32	1.41302
1589.47	1.91397
1589.63	1.72113
1589.79	-2.59213
1589.95	1.65305
1590.11	20.4849
1590.26	1.94916
1590.42	3.67612
1590.58	-4.74127
1590.74	0.256409
1590.9	3.41003
1591.06	0.211487
1591.21	1.39142
1591.37	-0.121094
1591.53	1.60544
1591.69	2.62994
1591.85	-1.90775
1592.01	-3.98956
1592.16	2.2905
1592.32	1.08456
1592.48	5.34262
1592.64	1.81451
1592.8	-0.0357666
1592.95	1.58755
1593.11	-6.64127
1593.27	3.224
1593.43	0.505188
1593.59	-3.5708
1593.74	0.55191
1593.9	0.716919
1594.06	5.32559
1594.22	3.22195
1594.38	-0.190796
1594.53	1.37363
1594.69	-1.84363
1594.85	3.51947
1595.01	0.353149
1595.17	3.09378
1595.32	2.51746
1595.48	3.505
1595.64	-0.609344
1595.8	1.68945
1595.96	-0.805481
1596.12	-3.10294
1596.27	0.838104
1596.43	-2.27728
1596.59	7.6564
1596.75	3.10876
1596.91	9.34882
1597.06	5.23395
1597.22	-0.846375
1597.38	6.4281
1597.54	0.0296021
1597.69	-3.84735
1597.85	0.466461
1598.01	-1.45889
1598.17	-0.703033
1598.33	-0.750366
1598.48	-1.14551
1598.64	7.14905
1598.8	0.262634
1598.96	2.04971
1599.12	-0.0450745
1599.27	4.84348
1599.43	-4.68375
1599.59	2.33984
1599.75	-0.231293
1599.9	4.4039
1600.06	5.60806
1600.22	0.19397
1600.38	0.339966
1600.54	-0.961792
1600.69	1.14218
1600.85	7.17645
1601.01	-0.4599
1601.17	-2.883
1601.32	-0.901978
1601.48	2.16498
1601.64	-0.858551
1601.8	-0.128754
1601.95	-1.0777
1602.11	1.27338
1602.27	1.06952
1602.43	0.580658
1602.59	0.55014
1602.74	2.18503
1602.9	-1.51941
1603.06	4.50229
1603.22	1.21835
1603.38	3.52435
1603.53	1.87338
1603.69	4.01877
1603.85	0.354065
1604.01	0.324921
1604.16	-0.371002
1604.32	0.316895
1604.48	-1.04022
1604.64	-2.02927
1604.79	6.31314
1604.95	-1.85608
1605.11	-6.23062
1605.27	-1.81671
1605.42	-1.7193
1605.58	-2.57822
1605.74	-3.92532
1605.9	-4.8331
1606.05	-1.21814
1606.21	4.24445
1606.37	-1.45395
1606.53	-3.94992
1606.68	-6.61264
1606.84	0.0843811
1607	0.243927
1607.16	1.40274
1607.31	2.14771
1607.47	-0.0351563
1607.63	5.77432
1607.79	2.02469
1607.94	3.13513
1608.1	-2.7052
1608.26	3.67719
1608.42	-0.955994
1608.57	-1.9501
1608.73	-0.76297
1608.89	-0.894287
1609.05	2.74597
1609.2	-3.31485
1609.36	0.145264
1609.52	-0.115814
1609.68	1.35587
1609.83	-0.640015
1609.99	-0.837189
1610.15	2.43082
1610.31	2.84573
1610.46	3.86862
1610.62	-1.28885
1610.78	5.39532
1610.94	0.972992
1611.09	2.21683
1611.25	0.944489
1611.41	0.836304
1611.56	-0.363281
1611.72	2.69858
1611.88	-3.66162
1612.04	-0.00515747
1612.19	1.63043
1612.35	0.371399
1612.51	-1.10101
1612.67	1.20969
1612.82	0.691772
1612.98	1.73907
1613.14	-3.02219
1613.29	7.03909
1613.45	7.69379
1613.61	8.54016
1613.77	-0.283203
1613.92	-2.4382
1614.08	0.132813
1614.24	2.54175
1614.4	0.29184
1614.55	-0.680573
1614.71	0.0653687
1614.87	0.0774841
1615.02	2.60342
1615.18	1.79315
1615.34	4.22159
1615.49	-2.30145
1615.65	0.922211
1615.81	3.73682
1615.97	0.23941
1616.12	-0.933746
1616.28	4.14301
1616.44	-1.59497
1616.6	-1.41083
1616.75	3.53625
1616.91	9.12323
1617.07	4.08398
1617.22	0.671173
1617.38	0.482697
1617.54	0.519897
1617.69	-1.67786
1617.85	3.87128
1618.01	3.0267
1618.17	1.0498
1618.32	-1.68042
1618.48	12.8741
1618.64	-0.428253
1618.79	5.98502
1618.95	2.71432
1619.11	-1.24896
1619.27	6.54721
1619.42	1.30338
1619.58	-0.707794
1619.74	5.48627
1619.89	3.27921
1620.05	5.28915
1620.21	5.14066
1620.36	2.57129
1620.52	7.72693
1620.68	-0.0996399
1620.83	-0.773163
1620.99	5.11975
1621.15	3.22586
1621.3	7.09717
1621.46	3.61896
1621.62	0.801544
1621.78	-0.771942
1621.93	7.10175
1622.09	3.67023
1622.25	2.13727
1622.4	5.0144
1622.56	3.70621
1622.72	3.38797
1622.87	5.38437
1623.03	4.26532
1623.19	5.69318
1623.34	2.06555
1623.5	6.63727
1623.66	1.12793
1623.81	8.84369
1623.97	13.4159
1624.13	2.90213
1624.28	2.26416
1624.44	1.66113
1624.6	1.20129
1624.76	1.18121
1624.91	2.21124
1625.07	5.39029
1625.23	6.1666
1625.38	6.33167
1625.54	4.07458
1625.7	6.23422
1625.85	-0.476929
1626.01	2.61432
1626.17	7.87973
1626.32	2.40109
1626.48	0.890045
1626.64	4.73178
1626.79	3.95444
1626.95	-0.406555
1627.11	1.27362
1627.26	-0.0143433
1627.42	11.1184
1627.58	5.76245
1627.73	2.09534
1627.89	0.076416
1628.05	0.168945
1628.2	4.12131
1628.36	0.851624
1628.52	10.5664
1628.67	3.7543
1628.83	6.23065
1628.99	2.29266
1629.14	-0.376434
1629.3	3.08173
1629.46	4.32339
1629.61	4.61713
1629.77	-0.870148
1629.92	5.65421
1630.08	4.04733
1630.24	5.22964
1630.39	4.3837
1630.55	1.34109
1630.71	1.24219
1630.86	7.68216
1631.02	0.630493
1631.18	2.2431
1631.33	5.48947
1631.49	0.143005
1631.65	5.34192
1631.8	-0.0942688
1631.96	5.99722
1632.12	4.98929
1632.27	8.84387
1632.43	0.664978
1632.58	3.54016
1632.74	5.34415
1632.9	4.14252
1633.05	2.6311
1633.21	7.52228
1633.37	11.0521
1633.52	4.47372
1633.68	5.10489
1633.84	3.53976
1633.99	8.30481
1634.15	7.37543
1634.31	-0.412537
1634.46	2.83206
1634.62	4.63943
1634.77	6.66882
1634.93	7.15048
1635.09	7.57159
1635.24	10.9193
1635.4	5.1857
1635.56	3.74469
1635.71	0.467346
1635.87	1.44345
1636.02	4.09155
1636.18	3.07605
1636.34	4.065
1636.49	2.35663
1636.65	7.19794
1636.81	7.58868
1636.96	1.61435
1637.12	1.05072
1637.27	6.0542
1637.43	6.59274
1637.59	10.1496
1637.74	4.97141
1637.9	0.546844
1638.06	11.765
1638.21	-1.42401
1638.37	2.41144
1638.52	4.71268
1638.68	6.16177
1638.84	2.96585
1638.99	6.37201
1639.15	4.96179
1639.31	0.651459
1639.46	5.31595
1639.62	4.60385
1639.77	7.06076
1639.93	1.95767
1640.09	4.94495
1640.24	5.25055
1640.4	6.48688
1640.55	8.54529
1640.71	8.34698
1640.87	3.92807
1641.02	0.707672
1641.18	5.56781
1641.33	4.21964
1641.49	3.25833
1641.65	3.5961
1641.8	2.32562
1641.96	10.4351
1642.11	7.32852
1642.27	3.01648
1642.43	4.91257
1642.58	4.94901
1642.74	6.77808
1642.89	5.16486
1643.05	5.52444
1643.21	1.27924
1643.36	5.12994
1643.52	2.39911
1643.67	3.2095
1643.83	5.14325
1643.99	1.78314
1644.14	6.52319
1644.3	4.37082
1644.45	4.61475
1644.61	4.51755
1644.77	2.28168
1644.92	10.1362
1645.08	4.34485
1645.23	0.0415649
1645.39	7.05231
1645.55	7.40384
1645.7	6.40079
1645.86	9.69739
1646.01	1.84775
1646.17	5.01804
1646.32	8.34692
1646.48	8.27628
1646.64	5.91284
1646.79	8.31329
1646.95	5.15942
1647.1	6.11426
1647.26	5.82587
1647.42	8.0777
1647.57	4.59644
1647.73	10.1971
1647.88	3.79825
1648.04	5.05771
1648.19	1.46469
1648.35	5.84842
1648.51	5.98953
1648.66	6.77896
1648.82	5.26025
1648.97	6.66644
1649.13	4.76056
1649.28	1.32996
1649.44	19.6853
1649.59	6.2731
1649.75	3.5925
1649.91	9.17255
1650.06	2.43579
1650.22	4.67188
1650.37	12.9606
1650.53	6.69937
1650.69	12.3363
1650.84	7.45123
1651	6.89841
1651.15	7.51077
1651.31	6.86545
1651.46	7.19293
1651.62	15.5629
1651.77	5.7067
1651.93	9.98965
1652.08	4.55981
1652.24	7.24069
1652.4	8.49628
1652.55	2.02759
1652.71	4.78864
1652.86	3.9895
1653.02	4.81625
1653.17	6.78177
1653.33	10.4883
1653.49	2.96848
1653.64	0.708801
1653.8	10.5168
1653.95	12.0061
1654.11	8.91229
1654.26	4.85898
1654.42	11.3158
1654.57	4.55594
1654.73	12.919
1654.88	10.9521
1655.04	7.2695
1655.2	2.1875
1655.35	1.86282
1655.51	9.19952
1655.66	3.45337
1655.82	6.47681
1655.97	5.5907
1656.13	5.53903
1656.28	0.66571
1656.44	1.98483
1656.59	12.1369
1656.75	6.24146
1656.91	8.63525
1657.06	9.67831
1657.22	14.3647
1657.37	15.8748
1657.53	4.06085
1657.68	2.61279
1657.84	3.71854
1657.99	4.01736
1658.15	9.53494
1658.3	13.0159
1658.46	3.21652
1658.61	7.51343
1658.77	4.59808
1658.92	8.22827
1659.08	5.384
1659.24	8.88293
1659.39	4.28265
1659.55	3.30676
1659.7	1.90643
1659.86	6.33545
1660.01	6.14377
1660.17	4.228
1660.32	4.99377
1660.48	8.90927
1660.63	15.0835
1660.79	5.30414
1660.94	7.23926
1661.1	3.10226
1661.25	11.1151
1661.41	3.76785
1661.56	6.25217
1661.72	5.52359
1661.87	10.0025
1662.03	6.57819
1662.18	1.57401
1662.34	6.85034
1662.49	6.12332
1662.65	1.78128
1662.8	5.10364
1662.96	5.96399
1663.12	9.47336
1663.27	0.724609
1663.43	3.06448
1663.58	4.90646
1663.74	3.522
1663.89	8.49338
1664.05	3.42593
1664.2	5.26251
1664.36	4.66699
1664.51	4.48438
1664.67	17.1395
1664.82	4.39719
1664.98	5.78537
1665.13	8.42834
1665.29	8.11551
1665.44	7.14398
1665.6	5.13647
1665.75	1.7782
1665.91	9.69855
1666.06	8.45001
1666.22	3.23099
1666.37	-0.476379
1666.53	8.43015
1666.68	6.31577
1666.84	7.08356
1666.99	2.85831
1667.15	3.62711
1667.3	6.30399
1667.46	5.15167
1667.61	6.93582
1667.77	4.76492
1667.92	2.34201
1668.07	6.63654
1668.23	10.2879
1668.39	4.47891
1668.54	4.96094
1668.7	0.633118
1668.85	5.23169
1669.01	7.85068
1669.16	2.82651
1669.31	4.86746
1669.47	6.23782
1669.62	7.60013
1669.78	4.35065
1669.93	6.67816
1670.09	5.01486
1670.24	6.82599
1670.4	3.14609
1670.55	7.50546
1670.71	3.10559
1670.86	4.02853
1671.02	5.53915
1671.17	0.535767
1671.33	7.33008
1671.48	2.93826
1671.64	9.84531
1671.79	8.79874
1671.95	8.39627
1672.1	8.72699
1672.26	7.90833
1672.41	3.7471
1672.56	10.2654
1672.72	6.86023
1672.87	-1.23419
1673.03	4.11758
1673.18	6.02493
1673.34	1.85217
1673.49	2.7507
1673.65	4.97974
1673.8	3.67563
1673.96	1.09454
1674.11	4.27283
1674.27	3.0011
1674.42	7.5809
1674.58	8.28134
1674.73	6.35797
1674.88	7.15649
1675.04	7.11603
1675.19	1.0705
1675.35	7.52109
1675.5	5.14578
1675.66	1.94537
1675.81	3.76202
1675.97	3.28647
1676.12	4.37109
1676.28	3.62436
1676.43	1.05841
1676.58	1.9054
1676.74	9.61765
1676.89	8.6127
1677.05	8.8298
1677.2	6.50299
1677.36	7.96719
1677.51	6.41974
1677.67	4.27814
1677.82	9.10062
1677.98	5.4017
1678.13	9.42548
1678.28	3.55829
1678.44	8.79114
1678.59	5.73584
1678.75	-0.337067
1678.9	5.50845
1679.06	2.3638
1679.21	-1.05862
1679.37	8.55145
1679.52	3.78061
1679.67	4.06958
1679.83	3.01767
1679.98	1.27759
1680.14	5.8941
1680.29	-0.852661
1680.45	2.65891
1680.6	3.90646
1680.75	0.398865
1680.91	10.4833
1681.06	0.697235
1681.22	0.799408
1681.37	1.85736
1681.53	1.32867
1681.68	4.25146
1681.83	2.31354
1681.99	4.07883
1682.14	0.785553
1682.3	-0.00469971
1682.45	2.08249
1682.61	0.329041
1682.76	1.69006
1682.92	6.64285
1683.07	4.54837
1683.22	5.5192
1683.38	5.1228
1683.53	1.56796
1683.69	3.06311
1683.84	5.38666
1683.99	-1.48096
1684.15	0.804626
1684.3	0.610809
1684.46	9.27957
1684.61	2.73969
1684.77	4.8179
1684.92	3.96292
1685.07	2.96268
1685.23	7.31262
1685.38	9.34485
1685.54	4.19424
1685.69	3.12924
1685.84	6.70737
1686	2.05438
1686.15	-0.217529
1686.31	8.8114
1686.46	3.84402
1686.61	8.31528
1686.77	0.395721
1686.92	5.43546
1687.08	3.84467
1687.23	1.76123
1687.39	3.37595
1687.54	5.43903
1687.69	4.09668
1687.85	-0.409943
1688	3.30655
1688.16	6.46991
1688.31	5.36267
1688.46	2.25256
1688.62	3.45627
1688.77	1.05859
1688.93	3.65579
1689.08	4.67908
1689.23	3.53421
1689.39	2.22833
1689.54	3.46863
1689.7	3.88269
1689.85	2.20981
1690	-1.57248
1690.16	0.452606
1690.31	5.08224
1690.47	-1.24417
1690.62	6.28781
1690.77	3.23764
1690.93	1.34558
1691.08	0.0343018
1691.24	0.285522
1691.39	2.76782
1691.54	1.54434
1691.7	4.52936
1691.85	5.30713
1692	6.39044
1692.16	3.76688
1692.31	3.84775
1692.47	-0.453186
1692.62	2.80872
1692.77	-0.34906
1692.93	3.49414
1693.08	3.41406
1693.24	5.24039
1693.39	5.70294
1693.54	4.80502
1693.7	2.47897
1693.85	4.237
1694.01	0.988708
1694.16	-0.132355
1694.31	0.158875
1694.47	1.68481
1694.62	-1.22241
1694.77	1.55295
1694.93	2.06219
1695.08	4.32422
1695.23	3.04034
1695.39	4.01935
1695.54	5.47189
1695.7	-0.000854492
1695.85	-0.00134277
1696	0.663452
1696.16	0.591156
1696.31	-3.12527
1696.46	1.92096
1696.62	-0.165833
1696.77	-0.0367432
1696.93	3.4274
1697.08	-1.76602
1697.23	0.957336
1697.39	1.13806
1697.54	-1.18933
1697.69	-1.33389
1697.85	0.887268
1698	-0.915802
1698.15	1.40692
1698.31	2.16223
1698.46	0.81723
1698.61	0.767487
1698.77	0.737335
1698.92	-0.51059
1699.08	3.03107
1699.23	0.779785
1699.38	0.473206
1699.54	-2.38806
1699.69	0.809814
1699.84	1.21997
1700	1.9017
1700.15	1.76511
1700.3	0.92627
1700.46	-2.29141
1700.61	-2.55185
1700.76	0.747162
1700.92	0.627655
1701.07	1.05685
1701.22	2.43716
1701.38	3.80133
1701.53	1.67197
1701.68	-1.19702
1701.84	-0.141754
1701.99	-2.34702
1702.15	-1.02725
1702.3	-0.373932
1702.45	-1.70108
1702.61	2.20953
1702.76	2.61014
1702.91	-1.42349
1703.07	-0.789185
1703.22	0.244751
1703.37	-3.59479
1703.53	-3.51007
1703.68	1.04059
1703.83	2.43515
1703.99	2.64484
1704.11	-0.0754089
1704.26	-0.0237427
1704.42	-2.25134
1704.58	3.81241
1704.73	-1.67325
1704.89	6.91895
1705.04	2.38434
1705.2	2.7121
1705.36	-2.1615
1705.51	0.833984
1705.67	6.57669
1705.82	0.481842
1705.98	6.17349
1706.14	-0.530396
1706.29	7.61777
1706.45	7.30563
1706.6	1.41891
1706.76	3.77722
1706.92	3.90762
1707.07	1.43127
1707.23	9.20724
1707.38	3.38
1707.54	1.24936
1707.69	-1.61029
1707.85	-1.0134
1708.01	2.31793
1708.16	2.01556
1708.32	-1.13043
1708.47	-0.733002
1708.63	-2.04858
1708.78	4.37134
1708.94	-1.27231
1709.1	2.31326
1709.25	-1.5972
1709.41	-0.466583
1709.56	-2.2522
1709.72	-0.951233
1709.87	0.256561
1710.03	-3.43399
1710.19	2.09558
1710.34	0.910706
1710.5	0.774933
1710.65	3.3385
1710.81	-2.61032
1710.96	-0.0618286
1711.12	-0.149292
1711.28	0.486633
1711.43	1.20029
1711.59	-3.52579
1711.74	1.09995
1711.9	-2.31143
1712.05	-3.4169
1712.21	0.73822
1712.36	0.931732
1712.52	-2.07602
1712.67	-3.12589
1712.83	-2.88138
1712.99	-1.1608
1713.14	1.05331
1713.3	-5.55582
1713.45	-4.86752
1713.61	-2.65594
1713.76	-1.70453
1713.92	0.162659
1714.08	3.51483
1714.23	-0.457031
1714.39	0.627106
1714.54	2.67877
1714.7	15.9054
1714.85	-1.1564
1715.01	2.11786
1715.16	4.9126
1715.32	4.08606
1715.47	-3.82544
1715.63	4.09821
1715.79	2.30899
1715.94	2.44858
1716.1	1.59171
1716.25	4.86136
1716.41	4.10205
1716.56	-2.00348
1716.72	-1.67047
1716.87	-3.69116
1717.03	-2.66943
1717.19	-3.72614
1717.34	-2.01868
1717.49	2.15424
1717.65	4.50613
1717.81	-0.791107
1717.96	-0.436707
1718.12	-1.16138
1718.27	0.912354
1718.43	-3.24203
1718.58	3.82806
1718.74	2.12149
1718.89	2.08215
1719.05	8.19272
1719.2	-2.22031
1719.36	2.51468
1719.51	6.6438
1719.67	3.6319
1719.82	2.07162
1719.98	1.4415
1720.14	-1.07169
1720.29	2.65045
1720.45	-3.96411
1720.6	2.82159
1720.76	0.733917
1720.91	0.775452
1721.07	7.50537
1721.22	1.62955
1721.38	-0.512329
1721.53	-4.00024
1721.69	-2.53668
1721.84	-2.77048
1722	-1.48624
1722.15	0.596497
1722.31	2.70538
1722.46	2.33267
1722.62	2.27118
1722.77	-1.11938
1722.93	-1.936
1723.08	1.8027
1723.24	1.30475
1723.39	-0.553284
1723.55	-0.787659
1723.7	-1.98859
1723.86	4.38092
1724.02	3.61707
1724.17	-0.300354
1724.33	-0.715698
1724.48	-1.14651
1724.64	1.03424
1724.79	1.05615
1724.95	-0.947998
1725.1	2.05005
1725.26	-3.32404
1725.41	4.71005
1725.57	2.22073
1725.72	-1.70349
1725.88	0.404602
1726.03	1.51404
1726.19	-0.111816
1726.34	0.0556946
1726.5	-1.72784
1726.65	1.50922
1726.81	-3.58841
1726.96	-2.38043
1727.12	-5.62811
1727.27	2.17285
1727.43	0.116425
1727.58	3.02448
1727.74	1.75867
1727.89	-2.23657
1728.05	-3.86533
1728.2	3.94931
1728.36	-2.45248
1728.51	1.30206
1728.66	2.49588
1728.82	-1.72543
1728.98	4.35834
1729.13	0.792725
1729.29	-0.358063
1729.44	0.678131
1729.59	0.321381
1729.75	-1.75662
1729.9	1.14221
1730.06	1.93375
1730.21	-1.78702
1730.37	-3.95435
1730.52	3.70065
1730.68	-0.442657
1730.83	1.9917
1730.99	0.875031
1731.14	1.01096
1731.3	6.61362
1731.45	-0.452179
1731.61	0.432831
1731.76	-1.4231
1731.92	0.496552
1732.07	-5.23212
1732.23	1.97186
1732.38	0.792755
1732.54	-0.385315
1732.69	-0.210907
1732.85	-3.09134
1733	2.54813
1733.16	3.89093
1733.31	2.92557
1733.46	3.18985
1733.62	2.51715
1733.77	0.166199
1733.93	2.75912
1734.08	-1.35754
1734.24	-3.2525
1734.39	-4.25879
1734.55	0.725922
1734.7	3.52353
1734.86	-1.97311
1735.01	-1.06772
1735.17	2.52856
1735.32	0.652954
1735.47	3.01358
1735.63	1.67868
1735.78	-0.409241
1735.94	-2.37393
1736.09	-1.45862
1736.25	4.09094
1736.4	3.14444
1736.56	1.76309
1736.71	-2.30191
1736.87	1.0191
1737.02	2.86731
1737.18	4.20114
1737.33	3.95749
1737.48	1.47128
1737.64	2.67889
1737.79	-1.79785
1737.95	1.12054
1738.1	-2.7471
1738.26	1.7272
1738.41	-1.0961
1738.57	2.46231
1738.72	-0.116302
1738.88	-1.24179
1739.03	1.18246
1739.18	0.599823
1739.34	0.112579
1739.49	1.99637
1739.65	0.849365
1739.8	0.571289
1739.96	-3.74579
1740.11	4.63226
1740.26	-0.545105
1740.42	0.618347
1740.57	4.6879
1740.73	-1.5744
1740.88	2.7738
1741.04	12.2952
1741.19	5.76535
1741.35	-2.07425
1741.5	-3.26071
1741.66	-2.64352
1741.81	-0.781006
1741.96	0.0445862
1742.12	0.271393
1742.27	2.11566
1742.43	3.45706
1742.58	-0.369812
1742.74	-2.22943
1742.89	3.82303
1743.04	-0.575043
1743.2	-2.0032
1743.35	1.74478
1743.51	-3.38406
1743.66	0.925018
1743.82	-0.437988
1743.97	2.14151
1744.12	1.21234
1744.28	1.50195
1744.43	5.03903
1744.59	1.2785
1744.74	-3.76154
1744.89	-1.69284
1745.05	2.60956
1745.2	2.03632
1745.36	0.481812
1745.51	2.07935
1745.67	-0.794952
1745.82	-1.58173
1745.97	0.549011
1746.13	4.53464
1746.28	2.53189
1746.44	0.497467
1746.59	2.20184
1746.75	1.42947
1746.9	3.19485
1747.05	-1.8273
1747.21	-1.35223
1747.36	-1.56003
1747.52	2.03729
1747.67	0.363098
1747.82	1.17429
1747.98	0.849854
1748.13	1.85602
1748.29	-3.29059
1748.44	0.973572
1748.59	-1.66132
1748.75	2.271
1748.9	3.1283
1749.06	-0.372009
1749.21	2.95795
1749.37	-0.132385
1749.52	2.97833
1749.67	-3.24509
1749.83	3.89587
1749.98	2.46973
1750.14	1.01294
1750.29	2.88019
1750.44	9.61758
1750.6	-2.14087
1750.75	5.04916
1750.9	6.7822
1751.06	4.34607
1751.21	6.33997
1751.37	0.271637
1751.52	-2.25638
1751.67	-1.8269
1751.83	3.90921
1751.98	1.65213
1752.14	2.776
1752.29	4.06046
1752.44	-1.42062
1752.6	1.05981
1752.75	-0.923584
1752.91	0.598785
1753.06	0.960449
1753.21	1.9458
1753.37	3.41464
1753.52	0.615387
1753.68	-1.09833
1753.83	0.905396
1753.98	1.89291
1754.14	-1.228
1754.29	4.85895
1754.44	-1.26837
1754.6	-0.39325
1754.75	1.33896
1754.91	1.61282
1755.06	2.96243
1755.21	-0.971283
1755.37	1.79199
1755.52	2.02405
1755.68	1.60739
1755.83	-0.599762
1755.98	1.38129
1756.14	-1.33908
1756.29	2.25305
1756.44	-0.728546
1756.6	-0.562866
1756.75	-2.42502
1756.91	-1.83188
1757.06	0.967926
1757.21	0.576111
1757.37	0.597961
1757.52	3.77881
1757.67	2.18274
1757.83	2.99844
1757.98	0.0123901
1758.13	3.66464
1758.29	4.86539
1758.44	3.71152
1758.6	2.2196
1758.75	6.7489
1758.9	5.80518
1759.06	4.47693
1759.21	-0.0693665
1759.36	2.37994
1759.52	3.52042
1759.67	3.68021
1759.82	1.20615
1759.98	0.539368
1760.13	1.37808
1760.29	1.48788
1760.44	0.0307312
1760.59	0.858948
1760.75	-0.0784912
1760.9	-1.54666
1761.05	-1.04706
1761.21	1.41769
1761.36	-2.0502
1761.51	-0.517883
1761.67	0.452881
1761.82	0.443573
1761.97	1.33975
1762.13	0.404968
1762.28	0.666992
1762.44	-0.846619
1762.59	0.34491
1762.74	1.42245
1762.89	-1.04282
1763.05	0.315826
1763.2	0.587341
1763.36	0.839478
1763.51	2.17255
1763.66	3.09573
1763.82	2.84933
1763.97	3.69812
1764.12	4.29807
1764.28	2.33032
1764.43	2.97018
1764.58	-0.301666
1764.74	1.98929
1764.89	-0.193939
1765.04	0.705872
1765.2	0.429962
1765.35	4.05524
1765.5	-0.798431
1765.66	0.607452
1765.81	3.96674
1765.96	-0.0744629
1766.12	0.121704
1766.27	1.39587
1766.42	-0.712555
1766.58	-2.39734
1766.73	2.39822
1766.88	1.14786
1767.04	1.25937
1767.19	7.66437
1767.34	1.38831
1767.5	-2.15387
1767.65	3.68274
1767.8	1.85165
1767.96	-1.08817
1768.11	1.18723
1768.26	2.74155
1768.42	3.45563
1768.57	-0.117371
1768.72	-0.733246
1768.88	-1.23352
1769.03	0.720154
1769.18	5.00558
1769.34	6.52524
1769.49	1.87625
1769.64	1.55417
1769.8	-1.45844
1769.95	0.723083
1770.1	-2.47318
1770.25	2.63672
1770.41	1.02637
1770.56	1.83618
1770.71	0.40976
1770.87	0.929535
1771.02	-0.206757
1771.17	1.98706
1771.33	-0.410431
1771.48	1.18561
1771.63	-2.63736
1771.79	1.32062
1771.94	-0.408722
1772.09	3.27319
1772.24	0.349304
1772.4	1.35873
1772.55	2.65732
1772.7	0.416992
1772.86	2.33966
1773.01	-3.08386
1773.16	-0.289368
1773.32	5.34503
1773.47	0.394806
1773.62	4.29507
1773.78	8.63193
1773.93	-1.84326
1774.08	-0.0355225
1774.23	0.826752
1774.39	2.15833
1774.54	0.750488
1774.69	-2.72754
1774.85	-0.354279
1775	-0.98349
1775.15	2.55841
1775.31	-0.471527
1775.46	-2.85626
1775.61	4.53806
1775.76	-2.47849
1775.92	1.07727
1776.07	3.62619
1776.22	6.66135
1776.38	-2.267
1776.53	-1.24774
1776.68	7.08353
1776.83	1.4798
1776.99	2.65393
1777.14	-1.14767
1777.29	1.04257
1777.45	-1.07123
1777.6	-0.13559
1777.75	4.34485
1777.9	-1.49683
1778.06	2.08911
1778.21	1.91446
1778.36	-0.324738
1778.52	-1.4371
1778.67	-0.352997
1778.82	2.94006
1778.97	-1.84842
1779.13	9.0773
1779.28	1.97266
1779.43	1.82913
1779.59	0.737091
1779.74	2.35583
1779.89	3.13028
1780.04	2.9628
1780.2	8.49271
1780.35	-1.10263
1780.5	4.71811
1780.65	0.017334
1780.81	2.57797
1780.96	1.16666
1781.11	2.41293
1781.27	-2.71634
1781.42	2.10364
1781.57	1.68542
1781.72	-0.467682
1781.88	-0.229645
1782.03	-0.928589
1782.18	-1.91388
1782.33	2.65161
1782.49	-1.49017
1782.64	-0.0994568
1782.79	-0.904724
1782.95	0.049469
1783.1	0.78186
1783.25	0.991302
1783.4	3.02356
1783.56	1.6702
1783.71	2.13339
1783.86	0.577087
1784.01	4.60562
1784.17	1.62186
1784.32	-0.121155
1784.47	-4.15741
1784.62	3.00156
1784.78	1.17987
1784.93	0.907623
1785.08	-0.693481
1785.23	4.37061
1785.39	-2.38364
1785.54	1.75604
1785.69	-4.79071
1785.84	1.92429
1786	7.09183
1786.15	-0.186523
1786.3	-0.98175
1786.45	-0.76004
1786.61	-0.500397
1786.76	-2.08246
1786.91	-1.65817
1787.06	4.7114
1787.22	2.07489
1787.37	4.36136
1787.52	-1.91998
1787.67	-0.418427
1787.83	-1.01849
1787.98	-0.535583
1788.13	-1.56335
1788.28	0.923431
1788.44	5.31827
1788.59	2.48505
1788.74	1.8309
1788.89	-1.44641
1789.04	7.77408
1789.2	-2.55762
1789.35	-0.612488
1789.5	8.00409
1789.65	-0.573944
1789.81	-4.52594
1789.96	-2.13379
1790.11	-1.18155
1790.26	0.507599
1790.42	1.19196
1790.57	-1.30795
1790.72	5.93307
1790.87	-2.99942
1791.02	1.01889
1791.18	3.28943
1791.33	1.24091
1791.48	0.91394
1791.63	0.654053
1791.79	2.20453
1791.94	1.07477
1792.09	-0.377594
1792.24	3.90958
1792.4	-0.95047
1792.55	-2.75317
1792.7	-0.300751
1792.85	-0.287811
1793	-0.155701
1793.16	-0.412201
1793.31	-3.8013
1793.46	-0.259094
1793.61	-4.1485
1793.76	1.31607
1793.92	-2.35641
1794.07	0.897736
1794.22	3.90894
1794.37	-2.91376
1794.53	-1.37924
1794.68	-0.89032
1794.83	0.517822
1794.98	4.4343
1795.14	1.02994
1795.29	2.06216
1795.44	2.20795
1795.59	0.969879
1795.74	0.960114
1795.9	2.08572
1796.05	5.33771
1796.2	1.9111
1796.35	-3.20892
1796.5	7.25992
1796.66	0.627686
1796.81	-1.31433
1796.96	-1.47549
1797.11	-4.2702
1797.26	2.64655
1797.42	-1.93439
1797.57	-0.7742
1797.72	1.28668
1797.87	1.37415
1798.02	-1.99774
1798.18	-1.73544
1798.33	5.04239
1798.48	2.49387
1798.63	-1.33118
1798.78	-5.85089
1798.94	3.82806
1799.09	-2.89975
1799.24	-2.59604
1799.39	-4.0061
1799.54	4.69574
1799.7	-1.73761
1799.85	0.0925903
1800	-2.54767
1800.15	1.58069
1800.3	6.25259
1800.45	3.79831
1800.61	-3.41519
1800.76	4.62558
1800.91	0.893311
1801.06	-1.5253
1801.21	-1.54089
1801.37	3.35284
1801.52	5.37198
1801.67	2.05847
1801.82	-0.439758
1801.97	-1.54373
1802.12	1.14954
1802.28	-0.330872
1802.43	-1.13708
1802.58	-1.92685
1802.73	-0.421265
1802.88	2.2113
1803.04	-0.783661
1803.19	3.63983
1803.34	-1.14307
1803.49	5.42706
1803.64	1.24896
1803.79	-2.69785
1803.95	3.31274
1804.1	-0.0570374
1804.25	1.68997
1804.4	1.23126
1804.55	-1.21194
1804.71	0.165222
1804.86	0.872467
1805.01	5.5303
1805.16	4.97455
1805.31	1.97394
1805.46	0.0880127
1805.62	1.34821
1805.77	1.44553
1805.92	0.185486
1806.07	-6.71793
1806.22	0.769592
1806.37	0.838898
1806.53	-0.203186
1806.68	0.229156
1806.83	2.86356
1806.98	0.506592
1807.13	0.266998
1807.28	-0.291138
1807.44	3.4281
1807.59	3.80508
1807.74	-1.99939
1807.89	-0.766418
1808.04	-1.82578
1808.19	0.460724
1808.34	1.23672
1808.5	1.3324
1808.65	0.0787354
1808.8	-2.20004
1808.95	1.88687
1809.1	0.455322
1809.25	4.52255
1809.41	1.09723
1809.56	4.87686
1809.71	6.62405
1809.86	6.26239
1810.01	1.86838
1810.16	0.300995
1810.31	5.21936
1810.47	1.74533
1810.62	2.8208
1810.77	8.00809
1810.92	-2.1228
1811.07	2.93887
1811.22	-4.34277
1811.37	0.398346
1811.53	-5.86331
1811.68	0.737885
1811.83	-5.14703
1811.98	1.76852
1812.13	-0.0461426
1812.28	2.03577
1812.43	3.5722
1812.59	1.33914
1812.74	-4.22128
1812.89	5.09827
1813.04	-0.394867
1813.19	0.157196
1813.34	2.2533
1813.49	4.276
1813.64	0.353485
1813.8	0.279999
1813.95	3.93985
1814.1	-0.433289
1814.25	1.85486
1814.4	0.644897
1814.55	3.47534
1814.7	-0.466522
1814.85	-4.40121
1815.01	1.48398
1815.16	0.389221
1815.31	1.84604
1815.46	2.9964
1815.61	4.42297
1815.76	4.49414
1815.91	9.10822
1816.07	-0.394897
1816.22	1.51398
1816.37	1.36722
1816.52	-0.305389
1816.67	0.0643311
1816.82	-1.14511
1816.97	1.13458
1817.12	5.62595
1817.28	4.75616
1817.43	0.167816
1817.58	1.97482
1817.73	-1.51428
1817.88	5.3071
1818.03	-1.12933
1818.18	-1.69901
1818.33	2.86044
1818.48	-0.654205
1818.63	-2.12122
1818.79	-1.11667
1818.94	4.84631
1819.09	1.82947
1819.24	0.779205
1819.39	2.70532
1819.54	2.97205
1819.69	1.77585
1819.84	6.33044
1819.99	-0.452789
1820.15	0.0609741
1820.3	2.28146
1820.45	0.223694
1820.6	4.77316
1820.75	-0.773132
1820.9	5.75815
1821.05	-0.184113
1821.2	3.33459
1821.35	-0.10849
1821.51	-2.57132
1821.66	3.1488
1821.81	0.908569
1821.96	4.35321
1822.11	-1.39249
1822.26	2.81882
1822.41	25.1245
1822.56	3.22372
1822.71	2.17645
1822.86	0.034668
1823.01	5.84418
1823.17	2.17496
1823.32	-2.55896
1823.47	8.4303
1823.62	2.59811
1823.77	3.39532
1823.92	3.15884
1824.07	-0.588531
1824.22	0.560974
1824.37	-1.74146
1824.52	2.19476
1824.67	6.11133
1824.83	-1.06445
1824.98	0.306274
1825.13	-0.913391
1825.28	-2.3504
1825.43	3.38141
1825.58	0.276367
1825.73	4.33484
1825.88	4.46265
1826.03	8.26633
1826.18	-0.743744
1826.33	0.0595398
1826.48	1.80414
1826.64	1.12616
1826.79	-0.21286
1826.94	1.82114
1827.09	-0.113373
1827.24	3.58392
1827.39	6.44891
1827.54	5.37936
1827.69	2.88312
1827.84	-2.22052
1827.99	2.33511
1828.14	3.2684
1828.29	0.274933
1828.44	7.2612
1828.59	-1.26886
1828.74	0.485992
1828.9	4.98636
1829.05	5.93781
1829.2	3.17401
1829.35	0.687439
1829.5	3.20801
1829.65	2.48788
1829.8	2.28528
1829.95	1.84277
1830.1	0.587952
1830.25	0.847015
1830.4	2.18607
1830.55	4.9476
1830.7	8.36752
1830.85	2.60608
1831	5.02872
1831.16	-0.317474
1831.31	-0.533051
1831.46	5.96332
1831.61	0.570984
1831.76	-0.698364
1831.91	6.45215
1832.06	1.0766
1832.21	2.42975
1832.36	4.19354
1832.51	4.83182
1832.66	5.0741
1832.81	2.439
1832.96	1.59686
1833.11	-0.778961
1833.26	1.21695
1833.41	3.93936
1833.56	3.2905
1833.71	7.63434
1833.86	6.09784
1834.02	5.39319
1834.17	1.85373
1834.32	-3.05933
1834.47	3.17593
1834.62	4.88245
1834.77	5.02148
1834.92	-1.1301
1835.07	5.03641
1835.22	5.01651
1835.37	7.43909
1835.52	-0.351929
1835.67	1.64423
1835.82	2.65198
1835.97	1.47238
1836.12	1.93039
1836.27	5.27185
1836.42	7.70514
1836.57	0.50708
1836.72	1.10629
1836.87	4.51688
1837.02	-0.342224
1837.17	7.21973
1837.32	1.68469
1837.48	1.28101
1837.63	4.64355
1837.78	1.98212
1837.93	3.89996
1838.08	2.63684
1838.23	3.16739
1838.38	0.161041
1838.53	1.00946
1838.68	2.59683
1838.83	5.59656
1838.98	-0.871124
1839.13	7.62259
1839.28	3.75391
1839.43	7.92166
1839.58	7.28906
1839.73	3.65967
1839.88	8.20065
1840.03	3.07904
1840.18	1.72974
1840.33	7.61755
1840.48	6.63199
1840.63	4.55057
1840.78	5.15811
1840.93	5.31079
1841.08	1.92719
1841.23	1.75778
1841.38	5.24628
1841.53	2.65793
1841.68	2.58423
1841.83	0.0863342
1841.98	3.67841
1842.13	-2.19263
1842.28	4.88596
1842.43	4.89575
1842.58	0.836365
1842.73	0.242126
1842.88	2.9592
1843.03	3.06064
1843.18	4.18555
1843.33	0.295471
1843.48	8.62994
1843.63	0.0233459
1843.78	3.49677
1843.93	6.92477
1844.08	8.07281
1844.23	4.77289
1844.38	5.58044
1844.53	0.843811
1844.68	11.1334
1844.83	4.70401
1844.98	5.40265
1845.13	4.7175
1845.28	2.74423
1845.43	8.20465
1845.58	8.21143
1845.73	6.43967
1845.88	3.93088
1846.03	8.64645
1846.18	5.38776
1846.33	2.48294
1846.48	2.82159
1846.63	2.6174
1846.78	-2.08722
1846.93	0.0282593
1847.08	7.82404
1847.23	3.40396
1847.38	5.48648
1847.53	6.55084
1847.68	5.99902
1847.83	1.81561
1847.98	8.46307
1848.13	3.75165
1848.28	3.30255
1848.43	4.46109
1848.58	5.09921
1848.73	4.44034
1848.88	8.46957
1849.03	2.74252
1849.18	4.49594
1849.33	2.46179
1849.48	12.4176
1849.63	2.75284
1849.78	0.905487
1849.93	5.14352
1850.08	4.28452
1850.23	5.32336
1850.38	5.31073
1850.53	3.75732
1850.68	6.36813
1850.83	7.52768
1850.98	6.15378
1851.13	7.2002
1851.28	5.2197
1851.43	4.04269
1851.58	15.541
1851.73	6.31406
1851.88	7.35657
1852.03	11.6068
1852.18	8.27313
1852.32	4.65393
1852.47	2.423
1852.62	5.84521
1852.77	4.80804
1852.92	4.79355
1853.07	3.06186
1853.22	7.28476
1853.37	9.09497
1853.52	2.94299
1853.67	4.77106
1853.82	7.50629
1853.97	5.05728
1854.12	5.72549
1854.27	4.45477
1854.42	4.18698
1854.57	8.58926
1854.72	8.4725
1854.87	4.2081
1855.02	8.05759
1855.17	2.32062
1855.32	4.50549
1855.47	3.44376
1855.62	7.12302
1855.77	3.21997
1855.92	4.42554
1856.07	4.55859
1856.21	4.87427
1856.36	6.34711
1856.51	5.23383
1856.66	4.51468
1856.81	1.86563
1856.96	4.01923
1857.11	2.03586
1857.26	14.8372
1857.41	2.16919
1857.56	4.87473
1857.71	5.68597
1857.86	5.24576
1858.01	5.00967
1858.16	3.2915
1858.31	13.9276
1858.46	6.58627
1858.61	3.61398
1858.76	5.63477
1858.91	3.39267
1859.05	4.46722
1859.2	4.73795
1859.35	2.91818
1859.5	6.90329
1859.65	11.5963
1859.8	10.8129
1859.95	6.76129
1860.1	6.05978
1860.25	10.9814
1860.4	3.79395
1860.55	4.43018
1860.7	9.42169
1860.85	5.51443
1861	3.08429
1861.15	1.68167
1861.29	1.59665
1861.44	5.51971
1861.59	2.17838
1861.74	9.94754
1861.89	3.97632
1862.04	4.53653
1862.19	6.26996
1862.34	3.33853
1862.49	4.71521
1862.64	6.62732
1862.79	3.49957
1862.94	6.13751
1863.09	5.88647
1863.24	6.94312
1863.38	9.50378
1863.53	5.23901
1863.68	10.7669
1863.83	5.34039
1863.98	5.13434
1864.13	4.08298
1864.28	4.61804
1864.43	6.53687
1864.58	2.35406
1864.73	1.37814
1864.88	6.48575
1865.03	5.25238
1865.17	5.36716
1865.32	2.89621
1865.47	6.80008
1865.62	5.65689
1865.77	3.76031
1865.92	4.45813
1866.07	1.3768
1866.22	0.252197
1866.37	12.1298
1866.52	6.71671
1866.67	2.36606
1866.81	3.34253
1866.96	8.02853
1867.11	6.89026
1867.26	3.87222
1867.41	4.11249
1867.56	6.8204
1867.71	3.20541
1867.86	1.6626
1868.01	3.55972
1868.16	3.14291
1868.31	5.04056
1868.45	3.43011
1868.6	6.44415
1868.75	8.53607
1868.9	5.91
1869.05	3.80887
1869.2	3.40662
1869.35	6.23615
1869.5	3.42896
1869.65	4.68185
1869.79	4.81625
1869.94	2.11957
1870.09	4.47446
1870.24	6.74606
1870.39	3.67902
1870.54	3.78091
1870.69	4.72946
1870.84	4.85211
1870.99	4.98434
1871.14	5.03073
1871.28	6.52652
1871.43	5.36386
1871.58	7.121
1871.73	6.10794
1871.88	5.06375
1872.03	1.0943
1872.18	1.33792
1872.33	6.32596
1872.47	5.34119
1872.62	3.48889
1872.77	4.15363
1872.92	1.85391
1873.07	5.8168
1873.22	5.82028
1873.37	5.97891
1873.52	3.54636
1873.67	4.81909
1873.81	11.0183
1873.96	3.13577
1874.11	1.51468
1874.26	4.35245
1874.41	2.73514
1874.56	6.42233
1874.71	7.35455
1874.86	3.91107
1875	2.83792
1875.15	4.38901
1875.3	6.89493
1875.45	5.88928
1875.6	8.03268
1875.75	8.5491
1875.9	6.27277
1876.04	2.96649
1876.19	2.51431
1876.34	2.54465
1876.49	8.49088
1876.64	1.37189
1876.79	7.86606
1876.94	2.16885
1877.08	4.20453
1877.23	6.11737
1877.38	3.55386
1877.53	3.90042
1877.68	5.64136
1877.83	4.82385
1877.98	7.86099
1878.12	3.81616
1878.27	5.13211
1878.42	3.5824
1878.57	7.00226
1878.72	5.25189
1878.87	3.5657
1879.02	6.91577
1879.17	4.58929
1879.31	3.5675
1879.46	2.17471
1879.61	2.92896
1879.76	5.05276
1879.91	4.37854
1880.06	2.27927
1880.21	6.12772
1880.35	9.97775
1880.5	7.16367
1880.65	10.3982
1880.8	6.39584
1880.95	0.113953
1881.1	19.6855
1881.24	2.06848
1881.39	8.70013
1881.54	6.27112
1881.69	6.97037
1881.84	11.4714
1881.99	8.67212
1882.13	2.66669
1882.28	2.99048
1882.43	7.68463
1882.58	2.16278
1882.73	9.04922
1882.88	0.846924
1883.03	4.03497
1883.17	7.39087
1883.32	4.45242
1883.47	4.74326
1883.62	5.96017
1883.77	9.39651
1883.91	10.1418
1884.06	7.49252
1884.21	4.36255
1884.36	10.445
1884.51	8.42093
1884.66	11.0872
1884.81	9.14001
1884.95	4.5062
1885.1	2.67554
1885.25	5.38086
1885.4	8.01563
1885.55	3.07919
1885.7	5.39297
1885.84	4.98065
1885.99	11.0154
1886.14	6.00644
1886.29	-2.3624
1886.44	6.16565
1886.58	4.61295
1886.73	-0.159424
1886.88	8.6283
1887.03	9.48947
1887.18	10.0208
1887.33	4.59558
1887.47	9.07404
1887.62	9.37985
1887.77	4.35291
1887.92	6.97461
1888.07	6.66891
1888.21	4.88907
1888.36	3.63062
1888.51	0.0482178
1888.66	5.06577
1888.81	3.63644
1888.96	3.58606
1889.1	6.83008
1889.25	5.37122
1889.4	8.77316
1889.55	6.99789
1889.69	6.7626
1889.84	3.81152
1889.99	9.09839
1890.14	6.32129
1890.29	8.89151
1890.44	1.70914
1890.58	12.3199
1890.73	8.32925
1890.88	4.28024
1891.03	8.73199
1891.18	9.87927
1891.32	4.74112
1891.47	0.866028
1891.62	6.25723
1891.77	1.40967
1891.92	6.19528
1892.06	6.74106
1892.21	8.19217
1892.36	5.99521
1892.51	0.615814
1892.66	4.65186
1892.8	9.30182
1892.95	4.75516
1893.1	7.23215
1893.25	6.99646
1893.4	1.36026
1893.54	10.1153
1893.69	5.67929
1893.84	5.79849
1893.99	0.831055
1894.14	3.60214
1894.28	4.99945
1894.43	3.9379
1894.58	0.825287
1894.73	2.88922
1894.87	6.86697
1895.02	3.62683
1895.17	3.53375
1895.32	6.99677
1895.47	0.520508
1895.61	4.95923
1895.76	9.73828
1895.91	11.2533
1896.06	8.51886
1896.2	1.76477
1896.35	5.05338
1896.5	7.03012
1896.65	9.90436
1896.8	4.83145
1896.94	11.777
1897.09	3.53088
1897.24	4.11154
1897.39	5.0773
1897.53	6.53284
1897.68	3.82404
1897.83	4.72983
1897.98	9.75446
1898.13	2.81973
1898.27	5.04333
1898.42	6.68903
1898.57	4.66467
1898.72	6.45218
1898.86	7.6911
1899.01	4.23117
1899.16	10.561
1899.31	11.4864
1899.46	4.56967
1899.6	7.09805
1899.75	3.39948
1899.9	5.98468
1900.05	3.78503
1900.19	11.1299
1900.34	3.32669
1900.49	12.9106
1900.64	1.63614
1900.78	6.25836
1900.93	3.15686
1901.08	5.0152
1901.23	3.01044
1901.37	5.54922
1901.52	3.7142
1901.67	2.70779
1901.82	5.16904
1901.97	7.56583
1902.11	5.90454
1902.26	9.98453
1902.41	6.90027
1902.56	4.82852
1902.7	1.61514
1902.85	7.16656
1903	2.21359
1903.15	2.99713
1903.29	3.42511
1903.44	4.50458
1903.59	8.74036
1903.74	2.55231
1903.88	3.35544
1904.03	6.52484
1904.18	4.13742
1904.33	1.57941
1904.47	7.33069
1904.62	7.02798
1904.77	3.51212
1904.91	4.16296
1905.06	8.44131
1905.21	4.36966
1905.36	2.75421
1905.51	3.53851
1905.65	3.90698
1905.8	3.9642
1905.95	9.61444
1906.09	2.83673
1906.24	7.73712
1906.39	0.376678
1906.54	5.87262
1906.68	3.61411
1906.83	3.38513
1906.98	4.95789
1907.13	0.893951
1907.27	9.3515
1907.42	0.48764
1907.57	2.07773
1907.72	7.35175
1907.86	5.01349
1908.01	6.7691
1908.16	7.49042
1908.3	7.87619
1908.45	5.72327
1908.6	3.74344
1908.75	2.19577
1908.89	3.33804
1909.04	8.1138
1909.19	8.51816
1909.34	7.41751
1909.48	5.26816
1909.63	5.50235
1909.78	3.19635
1909.92	4.92496
1910.07	10.4152
1910.22	5.80316
1910.37	4.35141
1910.51	5.70447
1910.66	5.68259
1910.81	5.96661
1910.95	7.21036
1911.1	4.93082
1911.25	5.40112
1911.4	6.81461
1911.54	7.95679
1911.69	2.85196
1911.84	2.3277
1911.98	1.04959
1912.13	3.51837
1912.28	10.7668
1912.43	11.5706
1912.57	7.41278
1912.72	3.59549
1912.87	10.1283
1913.01	8.69266
1913.16	10.2631
1913.31	10.1462
1913.46	4.48618
1913.6	5.88025
1913.75	7.17596
1913.9	6.27289
1914.04	6.84509
1914.19	5.97705
1914.34	3.77798
1914.48	16.1217
1914.63	2.78098
1914.78	4.87125
1914.93	9.13144
1915.07	6.37994
1915.22	5.43591
1915.37	8.4924
1915.51	4.24493
1915.66	5.99295
1915.81	4.5473
1915.96	10.6376
1916.1	3.81448
1916.25	6.33228
1916.4	6.6131
1916.54	7.63467
1916.69	8.30261
1916.84	6.07666
1916.98	4.14386
1917.13	7.72739
1917.28	2.82101
1917.42	5.17899
1917.57	6.71841
1917.72	3.77426
1917.87	3.06287
1918.01	1.07361
1918.16	4.30661
1918.31	12.4752
1918.45	9.05679
1918.6	5.04901
1918.75	4.88229
1918.89	7.39172
1919.04	6.61984
1919.19	4.54987
1919.33	4.95352
1919.48	10.3707
1919.63	10.8439
1919.77	4.22745
1919.92	1.97678
1920.07	5.47485
1920.21	6.42801
1920.36	1.98389
1920.51	4.08377
1920.65	4.13556
1920.8	4.71048
1920.95	5.46722
1921.09	7.42014
1921.24	8.57141
1921.39	3.26923
1921.53	5.78909
1921.68	6.52213
1921.83	4.99985
1921.97	8.05807
1922.12	8.98175
1922.27	9.37399
1922.41	9.47961
1922.56	4.7627
1922.71	9.29272
1922.86	4.39795
1923	7.19897
1923.15	5.80731
1923.3	7.00253
1923.44	4.66925
1923.59	3.14273
1923.74	4.35474
1923.88	6.07709
1924.03	5.94147
1924.17	8.76093
1924.32	9.01334
1924.47	8.18292
1924.61	6.91803
1924.76	6.70166
1924.91	4.53763
1925.05	7.76062
1925.2	4.98425
1925.35	5.76068
1925.49	9.80777
1925.64	6.65204
1925.79	5.17081
1925.93	6.9346
1926.08	5.09146
1926.23	7.82236
1926.37	7.83273
1926.52	7.74066
1926.67	4.63626
1926.81	5.16699
1926.96	4.95398
1927.11	3.59937
1927.25	7.67804
1927.4	5.36948
1927.54	6.81305
1927.69	5.31406
1927.84	5.31421
1927.98	6.93539
1928.13	7.61694
1928.28	8.20502
1928.42	6.81656
1928.57	7.15002
1928.72	3.83499
1928.86	9.70782
1929.01	6.33762
1929.16	4.57397
1929.3	2.93497
1929.45	5.3363
1929.6	4.1207
1929.74	4.0936
1929.89	5.94357
1930.03	5.50873
1930.18	7.20905
1930.33	5.7435
1930.47	7.84674
1930.62	3.17218
1930.77	5.29037
1930.91	5.64322
1931.06	7.73395
1931.1	8.61874
1931.25	7.24072
1931.4	3.69916
1931.55	6.61725
1931.69	10.8395
1931.84	5.99875
1931.99	6.69965
1932.14	3.47488
1932.29	6.14517
1932.44	5.9574
1932.59	8.32327
1932.73	4.09244
1932.88	4.64966
1933.03	11.1091
1933.18	3.76779
1933.33	10.2484
1933.48	4.74399
1933.63	4.64493
1933.78	5.19958
1933.93	7.63278
1934.07	10.3656
1934.22	4.68246
1934.37	11.2412
1934.52	7.41092
1934.67	7.3277
1934.82	10.628
1934.97	4.32339
1935.12	5.58618
1935.26	4.59177
1935.41	9.70654
1935.56	8.2135
1935.71	7.07681
1935.86	4.96454
1936.01	12.4432
1936.16	9.62112
1936.3	5.88959
1936.45	5.80432
1936.6	3.58444
1936.75	3.63351
1936.9	9.91479
1937.05	10.1465
1937.2	3.39453
1937.34	5.65027
1937.49	4.05606
1937.64	2.31705
1937.79	4.24619
1937.94	8.12503
1938.09	2.81229
1938.24	6.70358
1938.39	8.5231
1938.53	5.75641
1938.68	7.14221
1938.83	5.96585
1938.98	4.19183
1939.13	3.53717
1939.28	8.78513
1939.42	8.18494
1939.57	8.40509
1939.72	8.07095
1939.87	7.48184
1940.02	8.31604
1940.17	6.246
1940.32	5.78949
1940.46	9.59677
1940.61	7.21729
1940.76	7.74823
1940.91	11.1233
1941.06	3.63055
1941.21	6.29568
1941.35	4.51682
1941.5	6.39636
1941.65	11.6667
1941.8	6.35382
1941.95	24.6093
1942.1	5.53159
1942.25	8.98987
1942.39	5.37866
1942.54	10.7032
1942.69	3.65665
1942.84	10.1744
1942.99	5.41776
1943.14	9.05594
1943.28	13.722
1943.43	6.65189
1943.58	5.92099
1943.73	9.25476
1943.88	13.0969
1944.03	10.2276
1944.17	6.17831
1944.32	7.00549
1944.47	6.87079
1944.62	8.36713
1944.77	5.57498
1944.92	3.93222
1945.06	4.32233
1945.21	6.69666
1945.36	0.875763
1945.51	12.033
1945.66	7.60867
1945.8	7.91632
1945.95	6.93839
1946.1	7.00974
1946.25	3.96017
1946.4	7.67542
1946.55	12.832
1946.69	6.92606
1946.84	11.2521
1946.99	5.39365
1947.14	7.23224
1947.29	10.2956
1947.44	11.827
1947.58	5.35071
1947.73	7.24155
1947.88	1.97104
1948.03	6.60257
1948.18	13.6358
1948.32	8.04599
1948.47	8.01453
1948.62	4.37341
1948.77	7.77032
1948.92	15.4694
1949.06	3.13104
1949.21	10.803
1949.36	8.8092
1949.51	9.33328
1949.66	9.33179
1949.81	6.33398
1949.95	9.38516
1950.1	6.83658
1950.25	5.39105
1950.4	7.56003
1950.55	5.49084
1950.69	4.82031
1950.84	6.18976
1950.99	6.39334
1951.14	4.83362
1951.29	8.30502
1951.43	6.38333
1951.58	8.01132
1951.73	1.96805
1951.88	10.2599
1952.03	8.74445
1952.17	7.11084
1952.32	4.66226
1952.47	6.89856
1952.62	6.1893
1952.77	5.19614
1952.91	-0.0800476
1953.06	4.31833
1953.21	2.01422
1953.36	4.44028
1953.51	4.08737
1953.65	2.41208
1953.8	4.53653
1953.95	6.67624
1954.1	7.82825
1954.25	8.94296
1954.39	7.40881
1954.54	11.0022
1954.69	6.84787
1954.84	3.91525
1954.98	6.8338
1955.13	1.55911
1955.28	4.64963
1955.43	5.94089
1955.58	8.47638
1955.72	6.97354
1955.87	2.86035
1956.02	8.95709
1956.17	6.42917
1956.31	8.30368
1956.46	10.0831
1956.61	3.90164
1956.76	7.2421
1956.91	7.3468
1957.05	7.27582
1957.2	6.62137
1957.35	11.1274
1957.5	12.7454
1957.65	10.0345
1957.79	6.4007
1957.94	9.83868
1958.09	7.28537
1958.24	5.55072
1958.38	6.19739
1958.53	4.17099
1958.68	8.63211
1958.83	5.91504
1958.97	5.4957
1959.12	9.42709
1959.27	4.97678
1959.42	5.94354
1959.57	2.11624
1959.71	6.58908
1959.86	5.5354
1960.01	5.76324
1960.16	5.57327
1960.3	5.84726
1960.45	7.10428
1960.6	6.30914
1960.75	8.02905
1960.89	5.02237
1961.04	8.20328
1961.19	2.82193
1961.34	6.37717
1961.48	4.08887
1961.63	6.57095
1961.78	7.23621
1961.93	9.41956
1962.07	5.87402
1962.22	8.14371
1962.37	6.58316
1962.52	7.18906
1962.67	3.4335
1962.81	6.60498
1962.96	3.56076
1963.11	2.51718
1963.25	6.33102
1963.4	9.23541
1963.55	4.00977
1963.7	1.67163
1963.85	5.91861
1963.99	3.31754
1964.14	14.5713
1964.29	6.776
1964.44	7.16156
1964.58	2.20782
1964.73	3.11517
1964.88	10.2894
1965.02	7.53546
1965.17	3.83429
1965.32	2.72061
1965.47	6.4599
1965.61	5.17599
1965.76	2.99142
1965.91	8.29074
1966.06	8.35123
1966.2	5.62512
1966.35	6.59848
1966.5	4.01611
1966.65	5.35434
1966.79	4.44162
1966.94	4.83908
1967.09	13.7502
1967.24	4.26831
1967.38	6.89828
1967.53	8.61298
1967.68	6.86819
1967.83	6.76099
1967.97	7.69403
1968.12	5.73007
1968.27	6.1022
1968.41	6.99268
1968.56	3.39572
1968.71	13.1451
1968.86	3.84283
1969	5.6239
1969.15	6.48315
1969.3	7.82513
1969.45	3.90918
1969.59	5.40115
1969.74	6.39883
1969.89	4.41269
1970.03	4.53918
1970.18	6.0372
1970.33	8.15564
1970.48	11.1232
1970.62	8.55237
1970.77	5.97067
1970.92	3.98251
1971.06	3.4324
1971.21	7.39551
1971.36	0.024292
1971.51	6.21353
1971.65	11.204
1971.8	10.3648
1971.95	3.45551
1972.1	4.39368
1972.24	2.40973
1972.39	1.86615
1972.54	3.37775
1972.68	3.27502
1972.83	6.9801
1972.98	9.38501
1973.13	9.67084
1973.27	5.10147
1973.42	3.69168
1973.57	7.44681
1973.71	2.05276
1973.86	5.2995
1974.01	10.2901
1974.16	8.49179
1974.3	4.21448
1974.45	4.25696
1974.6	2.81741
1974.74	4.81158
1974.89	5.61987
1975.04	7.64423
1975.18	5.2897
1975.33	5.1188
1975.48	6.0639
1975.62	2.19705
1975.77	5.99509
1975.92	3.68549
1976.07	18.0926
1976.21	8.49521
1976.36	5.54068
1976.51	4.32419
1976.65	5.72418
1976.8	8.09644
1976.95	2.15179
1977.09	3.00488
1977.24	5.57306
1977.39	2.66663
1977.54	6.55884
1977.68	6.61774
1977.83	5.48999
1977.98	3.20615
1978.12	4.09198
1978.27	6.91888
1978.42	8.75186
1978.56	4.5351
1978.71	11.9626
1978.86	3.36176
1979	5.56393
1979.15	5.93311
1979.3	4.76544
1979.45	10.0568
1979.59	3.48221
1979.74	9.07468
1979.89	7.3226
1980.03	8.95862
1980.18	6.56961
1980.33	4.53766
1980.47	7.09604
1980.62	7.1329
1980.77	8.5864
1980.91	5.55264
1981.06	3.23413
1981.21	5.1416
1981.35	6.05307
1981.5	1.16849
1981.65	1.65799
1981.79	6.42282
1981.94	2.08344
1982.09	1.80774
1982.23	5.16797
1982.38	3.9176
1982.53	4.99936
1982.67	4.56741
1982.82	7.40451
1982.97	6.49786
1983.11	2.573
1983.26	5.44681
1983.41	3.20636
1983.55	3.96213
1983.7	5.23972
1983.85	2.50427
1983.99	5.45703
1984.14	7.89618
1984.29	5.83032
1984.43	5.87823
1984.58	3.41202
1984.73	4.54504
1984.87	4.64389
1985.02	5.85297
1985.17	5.55438
1985.31	1.27881
1985.46	-1.14734
1985.61	4.3414
1985.75	5.74762
1985.9	9.23859
1986.05	1.71539
1986.19	1.52185
1986.34	5.07013
1986.49	3.97339
1986.63	1.89957
1986.78	8.69034
1986.93	4.00583
1987.07	3.69357
1987.22	1.12039
1987.37	8.07288
1987.51	2.86707
1987.66	1.07129
1987.8	4.9458
1987.95	3.11438
1988.1	4.71054
1988.24	7.54895
1988.39	10.6232
1988.54	3.71338
1988.68	0.902313
1988.83	1.47723
1988.98	7.13226
1989.12	3.58984
1989.27	2.56754
1989.42	5.64996
1989.56	2.51157
1989.71	1.67725
1989.86	6.50073
1990	0.664093
1990.15	4.05466
1990.29	1.91385
1990.44	8.75473
1990.59	6.01474
1990.73	2.36646
1990.88	5.35211
1991.03	2.36533
1991.17	1.9949
1991.32	2.58963
1991.46	0.971588
1991.61	8.17963
1991.76	6.07651
1991.9	6.53076
1992.05	2.61597
1992.2	10.4938
1992.34	2.58102
1992.49	6.00241
1992.64	4.68048
1992.78	4.52243
1992.93	0.599487
1993.07	12.4115
1993.22	11.9284
1993.37	2.92648
1993.51	6.24695
1993.66	2.06543
1993.81	4.31229
1993.95	0.549225
1994.1	6.08252
1994.24	1.48553
1994.39	6.35727
1994.54	2.3132
1994.68	3.09232
1994.83	1.33282
1994.98	6.29742
1995.12	7.66946
1995.27	3.21292
1995.41	0.203369
1995.56	3.51608
1995.71	-0.390869
1995.85	4.9996
1996	4.07724
1996.15	2.42746
1996.29	4.50513
1996.44	0.610077
1996.58	4.453
1996.73	5.46063
1996.88	1.70508
1997.02	1.1702
1997.17	3.16922
1997.31	2.19312
1997.46	0.297485
1997.61	4.03787
1997.75	2.71072
1997.9	2.90213
1998.04	5.55045
1998.19	6.36954
1998.34	4.70779
1998.48	1.73267
1998.63	4.54425
1998.77	1.96231
1998.92	1.54391
1999.07	2.47397
1999.21	-0.606964
1999.36	2.10291
1999.5	3.45807
1999.65	0.467285
1999.8	2.92081
1999.94	1.38324
2000.09	3.29349
2000.23	3.85394
2000.38	1.44559
2000.53	-2.14435
2000.67	7.39432
2000.82	1.73718
2000.96	-0.234741
2001.11	1.04944
2001.26	1.18546
2001.4	4.72205
2001.55	9.81616
2001.69	2.95071
2001.84	3.30627
2001.99	0.783875
2002.13	5.97821
2002.28	0.385345
2002.42	1.27292
2002.57	5.91586
2002.71	-0.297455
2002.86	-0.0924072
2003.01	1.08817
2003.15	2.60565
2003.3	5.28226
2003.44	9.62036
2003.59	5.11005
2003.74	4.32336
2003.88	-3.86389
2004.03	1.32089
2004.17	2.01401
2004.32	0.89859
2004.47	7.93359
2004.61	-0.258545
2004.76	-0.598877
2004.9	1.95572
2005.05	-0.611816
2005.19	0.445129
2005.34	0.415039
2005.49	-0.740631
2005.63	2.00037
2005.78	0.300751
2005.92	-1.20853
2006.07	2.8291
2006.21	3.2027
2006.36	0.0850525
2006.51	4.37958
2006.65	1.50504
2006.8	2.00845
2006.94	1.91876
2007.09	-3.71344
2007.23	6.2645
2007.38	4.38687
2007.52	4.94925
2007.67	3.68103
2007.82	-1.68372
2007.96	0.191772
2008.11	1.72592
2008.25	-1.25232
2008.4	-0.361084
2008.54	3.11411
2008.69	-0.906525
2008.84	1.99911
2008.98	1.27481
2009.13	2.03366
2009.27	0.786407
2009.42	2.67798
2009.56	0.812531
2009.71	1.14243
2009.85	1.93356
2010	1.48782
2010.15	-0.188141
2010.29	3.05557
2010.44	1.31921
2010.58	-2.68405
2010.73	-1.29291
2010.87	2.01779
2011.02	0.306732
2011.16	3.47125
2011.31	-3.32181
2011.46	4.5488
2011.6	4.20551
2011.75	4.45187
2011.89	1.15234
2012.04	4.5336
2012.18	-0.56604
2012.33	2.6391
2012.47	8.64331
2012.62	4.90555
2012.77	-0.355988
2012.91	9.55829
2013.06	-3.09958
2013.2	2.1102
2013.35	1.59314
2013.49	1.57236
2013.64	-0.181641
2013.78	2.65564
2013.93	2.42474
2014.07	0.0617981
2014.22	0.595337
2014.36	4.19537
2014.51	3.71304
2014.65	-0.35321
2014.8	4.81274
2014.95	2.43063
2015.09	1.96439
2015.24	-2.19363
2015.38	6.70154
2015.53	6.78421
2015.67	2.14969
2015.82	1.12411
2015.96	-0.496368
2016.11	7.37958
2016.25	-0.120697
2016.4	0.663788
2016.54	-1.9859
2016.69	-0.970398
2016.83	4.23151
2016.98	3.24094
2017.13	0.60849
2017.27	5.09442
2017.42	0.960327
2017.56	0.60141
2017.71	2.32416
2017.85	-0.0519409
2018	-0.235077
2018.14	-2.05362
2018.29	0.983948
2018.43	0.166595
2018.58	-1.11157
2018.72	0.761566
2018.87	-0.647644
2019.01	1.67883
2019.16	4.18661
2019.3	-0.82901
2019.45	-0.678131
2019.59	-1.5845
2019.74	-1.67371
2019.88	4.2984
2020.03	1.22418
2020.17	-1.33682
2020.32	4.43396
2020.46	0.472534
2020.61	-1.78766
2020.75	2.77002
2020.9	-1.0856
2021.05	-0.245667
2021.19	-3.67145
2021.34	0.62973
2021.48	0.0109863
2021.63	-1.1821
2021.77	7.17377
2021.92	-0.0532837
2022.06	-0.649628
2022.21	6.77991
2022.35	3.56375
2022.5	-1.33847
2022.64	-0.520172
2022.79	1.44952
2022.93	0.431366
2023.08	-1.16956
2023.22	2.17261
2023.37	0.15921
2023.51	-3.50989
2023.66	-1.08539
2023.8	1.65311
2023.95	-0.941559
2024.09	8.14944
2024.24	-1.03427
2024.38	1.30423
2024.53	1.65866
2024.67	-0.660675
2024.81	-1.01434
2024.96	2.38632
2025.11	3.32928
2025.25	1.10629
2025.4	3.60016
2025.54	4.29349
2025.68	1.82391
2025.83	1.01544
2025.97	1.52274
2026.12	2.246
2026.26	-2.7355
2026.41	0.14621
2026.55	0.109436
2026.7	2.51913
2026.84	0.892029
2026.99	-1.30746
2027.13	0.263214
2027.28	2.39789
2027.42	-1.12231
2027.57	-0.71283
2027.71	-2.07089
2027.86	-0.362274
2028	-0.922791
2028.15	-3.20844
2028.29	-1.9129
2028.44	-2.46124
2028.58	-2.48416
2028.73	1.31693
2028.87	-0.853241
2029.02	-1.38437
2029.16	-1.71158
2029.31	2.19781
2029.45	-1.55362
2029.6	-1.39117
2029.74	0.0139465
2029.88	1.75787
2030.03	3.03378
2030.17	-2.7243
2030.32	-5.95016
2030.46	-2.23395
2030.61	-0.04776
2030.75	1.59583
2030.9	1.25089
2031.04	-1.38419
2031.19	-0.128052
2031.33	4.6059
2031.48	2.31754
2031.62	2.10294
2031.76	-4.48425
2031.91	0.222778
2032.05	-0.996704
2032.2	0.122681
2032.34	1.04361
2032.49	5.66653
2032.63	1.0173
2032.78	2.40482
2032.92	2.90991
2033.07	-0.505432
2033.21	0.726959
2033.36	1.0491
2033.5	3.8288
2033.64	0.816376
2033.79	5.85394
2033.93	-0.864502
2034.08	3.70053
2034.22	1.1424
2034.37	0.658325
2034.51	1.84442
2034.66	1.75336
2034.8	2.00385
2034.95	-0.291382
2035.09	7.38101
2035.23	-2.64734
2035.38	-1.16571
2035.52	-2.04773
2035.67	0.513794
2035.81	1.25748
2035.96	-1.20764
2036.1	5.26746
2036.25	-0.339844
2036.39	1.87918
2036.53	4.32245
2036.68	-3.01233
2036.82	3.59375
2036.97	-0.66095
2037.11	1.87149
2037.26	5.38589
2037.4	2.57211
2037.55	4.28799
2037.69	2.0506
2037.83	-0.66507
2037.98	1.59763
2038.12	1.72153
2038.27	5.77194
2038.41	2.02475
2038.56	8.68417
2038.7	0.161926
2038.85	3.82465
2038.99	1.04068
2039.13	-0.542786
2039.28	-0.255005
2039.42	-1.26474
2039.57	3.93457
2039.71	6.17551
2039.85	-0.504944
2040	-1.41782
2040.14	-1.539
2040.29	1.11188
2040.43	0.911469
2040.58	0.785187
2040.72	5.01761
2040.87	3.93777
2041.01	1.47198
2041.15	0.195465
2041.3	3.5192
2041.44	-0.625214
2041.59	1.53738
2041.73	2.95013
2041.87	-0.101013
2042.02	0.292542
2042.16	1.69672
2042.31	-0.741272
2042.45	1.98865
2042.6	1.47607
2042.74	-0.608032
2042.88	-0.0172729
2043.03	-0.401703
2043.17	-0.139771
2043.32	0.221649
2043.46	4.3616
2043.6	-0.645996
2043.75	4.38547
2043.89	-2.17212
2044.04	-2.09726
2044.18	1.38181
2044.33	3.82153
2044.47	-3.13528
2044.61	-2.82971
2044.76	13.1812
2044.9	-1.54913
2045.05	2.48532
2045.19	1.49484
2045.33	3.35168
2045.48	2.33063
2045.62	7.3956
2045.77	1.75345
2045.91	2.58093
2046.05	-1.85498
2046.2	0.290222
2046.34	-1.1069
2046.49	1.16541
2046.63	0.271149
2046.77	1.38443
2046.92	1.96948
2047.06	0.916931
2047.21	1.81979
2047.35	0.129517
2047.49	9.37424
2047.64	4.31683
2047.78	1.04489
2047.93	1.13779
2048.07	1.42896
2048.21	7.77786
2048.36	4.15295
2048.5	0.923584
2048.65	2.4866
2048.79	2.7562
2048.93	0.886353
2049.08	4.54977
2049.22	0.252594
2049.36	2.79959
2049.51	8.07544
2049.65	1.81244
2049.8	0.368927
2049.94	4.09161
2050.09	1.51938
2050.23	5.23965
2050.37	1.49335
2050.52	0.397888
2050.66	4.13687
2050.8	0.570038
2050.95	1.75314
2051.09	0.884735
2051.24	2.3063
2051.38	1.42068
2051.52	-1.16458
2051.67	1.40561
2051.81	3.75217
2051.95	5.7962
2052.1	2.50247
2052.24	0.674347
2052.39	-2.49075
2052.53	0.502716
2052.67	0.989868
2052.82	1.55792
2052.96	8.47879
2053.1	-0.704315
2053.25	4.4567
2053.39	1.67059
2053.54	3.58008
2053.68	1.29523
2053.82	4.4549
2053.97	-3.0126
2054.11	-0.962128
2054.25	8.29468
2054.4	6.83322
2054.54	2.76892
2054.69	3.72177
2054.83	-0.202545
2054.97	2.1575
2055.12	-1.63733
2055.26	2.30307
2055.4	6.48917
2055.55	-1.86716
2055.69	0.0570679
2055.83	3.58527
2055.98	1.30386
2056.12	0.535858
2056.26	3.45316
2056.41	2.43552
2056.55	4.91217
2056.7	0.539001
2056.84	1.41006
2056.98	2.36322
2057.13	5.08917
2057.27	-1.81296
2057.41	1.25021
2057.56	8.39883
2057.7	-1.51633
2057.84	6.49823
2057.99	2.98611
2058.13	2.2103
2058.28	2.34613
2058.42	0.691376
2058.56	2.8349
2058.71	0.357544
2058.85	3.15475
2058.99	-2.11996
2059.14	0.382996
2059.28	-0.136993
2059.42	2.52213
2059.57	4.09711
2059.71	7.53964
2059.85	-0.63974
2060	0.684845
2060.14	-0.825775
2060.28	0.672028
2060.43	-1.49481
2060.57	0.634674
2060.71	2.0437
2060.86	2.76224
2061	6.21002
2061.14	4.69592
2061.29	5.13434
2061.43	2.94785
2061.57	5.14862
2061.72	4.92871
2061.86	-0.523834
2062	0.856873
2062.15	1.29776
2062.29	2.65814
2062.43	4.93225
2062.58	3.84152
2062.72	0.217285
2062.86	1.28406
2063.01	3.12317
2063.15	3.5946
2063.3	1.37772
2063.44	4.36493
2063.58	0.990143
2063.72	6.12143
2063.87	0.764282
2064.01	4.44531
2064.15	4.83862
2064.3	4.12314
2064.44	-1.95389
2064.58	2.54697
2064.73	4.95383
2064.87	4.01477
2065.01	6.68759
2065.16	5.95834
2065.3	0.628815
2065.44	7.00623
2065.59	2.61612
2065.73	2.51907
2065.87	2.1756
2066.02	5.50897
2066.16	1.69772
2066.3	3.10446
2066.45	3.59686
2066.59	-1.69681
2066.73	4.35681
2066.88	-0.495056
2067.02	2.65659
2067.16	2.53528
2067.3	1.96362
2067.45	14.0271
2067.59	-0.00442505
2067.73	2.67648
2067.88	1.27277
2068.02	1.06516
2068.16	1.52921
2068.31	0.419678
2068.45	1.04208
2068.59	-0.908142
2068.74	2.86594
2068.88	3.22034
2069.02	-0.924591
2069.16	6.59247
2069.31	7.98663
2069.45	-3.01959
2069.59	6.04202
2069.74	3.35977
2069.88	-0.819885
2070.02	1.39764
2070.17	2.0546
2070.31	4.80356
2070.45	0.800598
2070.6	21.6793
2070.74	0.570709
2070.88	4.99582
2071.02	3.58765
2071.17	4.81039
2071.31	3.21509
2071.45	3.73871
2071.6	6.11835
2071.74	6.87494
2071.88	-0.0534668
2072.02	4.36871
2072.17	-1.25955
2072.31	1.59433
2072.45	5.73877
2072.6	14.5138
2072.74	2.33936
2072.88	-0.348328
2073.02	7.34549
2073.17	0.676422
2073.31	3.26328
2073.45	1.58694
2073.6	2.90558
2073.74	8.45633
2073.88	1.54816
2074.02	0.335144
2074.17	1.47858
2074.31	-1.10999
2074.45	-1.11121
2074.6	1.06189
2074.74	-0.763733
2074.88	5.99823
2075.02	-1.06775
2075.17	2.02005
2075.31	0.660706
2075.45	4.02292
2075.6	4.46402
2075.74	1.66071
2075.88	3.33929
2076.02	4.87527
2076.17	7.80853
2076.31	3.05042
2076.45	0.7276
2076.6	2.75049
2076.74	4.90219
2076.88	-1.38617
2077.02	3.46472
2077.17	1.85101
2077.31	3.51505
2077.45	2.35995
2077.59	2.42807
2077.74	1.47668
2077.88	-1.33737
2078.02	-1.616
2078.17	2.21548
2078.31	6.64853
2078.45	3.12241
2078.59	0.0682983
2078.74	4.17819
2078.88	4.64661
2079.02	9.28119
2079.16	5.05859
2079.31	1.53134
2079.45	3.98535
2079.59	2.69223
2079.73	2.09177
2079.88	2.14865
2080.02	-0.628265
2080.16	6.26694
2080.3	3.52939
2080.45	0.97998
2080.59	0.0166931
2080.73	0.95874
2080.87	2.98706
2081.02	1.16208
2081.16	-0.325684
2081.3	1.02859
2081.44	2.9566
2081.59	2.92545
2081.73	2.95905
2081.87	3.3363
2082.01	2.14212
2082.16	1.75906
2082.3	1.37747
2082.44	2.53802
2082.58	4.3475
2082.73	-0.908142
2082.87	-0.244781
2083.01	-3.41144
2083.15	-2.89133
2083.3	3.43271
2083.44	-0.520386
2083.58	-0.0510254
2083.72	6.48938
2083.87	2.86343
2084.01	5.36465
2084.15	4.35837
2084.29	1.78616
2084.44	0.484314
2084.58	5.09357
2084.72	2.09567
2084.86	0.323212
2085.01	4.13275
2085.15	1.50177
2085.29	-2.05408
2085.43	5.14291
2085.58	5.43384
2085.72	1.69641
2085.86	1.91104
2086	4.13809
2086.15	8.81262
2086.29	6.86813
2086.43	2.25082
2086.57	4.53381
2086.71	8.95209
2086.86	1.4368
2087	5.76248
2087.14	4.5675
2087.28	5.16345
2087.43	0.894928
2087.57	2.7543
2087.71	1.92999
2087.85	0.0825806
2087.99	0.90799
2088.14	3.81271
2088.28	4.89041
2088.42	2.53845
2088.56	4.39777
2088.71	-0.642059
2088.85	1.59076
2088.99	2.22977
2089.13	4.9985
2089.27	5.56754
2089.42	4.96201
2089.56	3.21805
2089.7	2.04376
2089.84	0.602295
2089.99	7.81882
2090.13	-0.0684509
2090.27	6.49225
2090.41	6.96915
2090.55	9.57037
2090.7	2.44211
2090.84	3.39581
2090.98	1.15887
2091.12	4.01251
2091.26	-0.790314
2091.41	8.62952
2091.55	-0.746796
2091.69	4.45953
2091.83	0.263367
2091.98	4.85513
2092.12	3.06747
2092.26	2.77191
2092.4	1.88745
2092.54	2.24567
2092.69	1.51236
2092.83	3.91757
2092.97	0.750641
2093.11	4.80173
2093.25	0.381134
2093.4	3.82791
2093.54	8.0788
2093.68	6.03409
2093.82	7.26898
2093.96	5.30994
2094.11	2.14557
2094.25	11.1638
2094.39	0.37204
2094.53	3.49066
2094.67	6.6069
2094.82	0.251892
2094.96	0.980957
2095.1	5.84232
2095.24	-0.316223
2095.38	7.00775
2095.53	0.563354
2095.67	2.88455
2095.81	1.95432
2095.95	2.68301
2096.09	2.91565
2096.24	5.7464
2096.38	4.14276
2096.52	7.21906
2096.66	-0.0792847
2096.8	1.64249
2096.95	2.51633
2097.09	1.32278
2097.23	8.96228
2097.37	-0.427795
2097.51	3.61838
2097.65	1.59866
2097.8	4.85492
2097.94	2.69339
2098.08	4.17282
2098.22	1.98938
2098.36	5.07864
2098.5	1.48535
2098.65	5.82227
2098.79	5.70355
2098.93	2.14145
2099.07	3.444
2099.21	4.7818
2099.36	3.17603
2099.5	3.36499
2099.64	4.29892
2099.78	5.26321
2099.92	5.23849
2100.06	3.54626
2100.21	0.335846
2100.35	2.51938
2100.49	0.690643
2100.63	5.16562
2100.77	17.0104
2100.91	7.18616
2101.06	2.04166
2101.2	4.03741
2101.34	4.30899
2101.48	7.92471
2101.62	6.35266
2101.76	3.52194
2101.91	0.59552
2102.05	2.17432
2102.19	5.62225
2102.33	0.0399475
2102.47	4.06308
2102.61	5.30536
2102.76	5.54324
2102.9	0.518646
2103.04	0.298645
2103.18	2.31729
2103.32	11.1604
2103.46	0.106689
2103.61	9.33563
2103.75	6.74716
2103.89	4.59338
2104.03	6.992
2104.17	2.77405
2104.31	5.12967
2104.45	0.998199
2104.6	7.51526
2104.74	5.03488
2104.88	3.12949
2105.02	0.607086
2105.16	4.46814
2105.3	5.57803
2105.45	0.795135
2105.59	11.3027
2105.73	4.24197
2105.87	11.7466
2106.01	7.51996
2106.15	1.90497
2106.3	4.76785
2106.44	5.88202
2106.58	3.11743
2106.72	1.69916
2106.86	3.46268
2107	4.36224
2107.14	5.84726
2107.28	-1.39014
2107.43	4.63486
2107.57	5.905
2107.71	2.96817
2107.85	5.73688
2107.99	3.80984
2108.13	0.900299
2108.27	2.85831
2108.42	1.21146
2108.56	10.226
2108.7	4.95642
2108.84	7.24149
2108.98	9.19452
2109.12	3.83679
2109.26	4.67032
2109.41	10.2745
2109.55	4.43341
2109.69	2.86005
2109.83	6.67026
2109.97	1.98126
2110.11	1.6593
2110.25	7.95435
2110.39	10.1993
2110.54	8.43774
2110.68	3.72348
2110.82	1.3118
2110.96	5.24393
2111.1	-0.496002
2111.24	5.59375
2111.38	5.85767
2111.52	11.1266
2111.67	5.63925
2111.81	3.82968
2111.95	9.41367
2112.09	4.10858
2112.23	7.95609
2112.37	6.64926
2112.51	6.17609
2112.65	12.3546
2112.8	3.44922
2112.94	3.55945
2113.08	1.495
2113.22	8.17542
2113.36	3.65512
2113.5	3.9595
2113.64	1.68329
2113.78	2.39938
2113.93	5.63971
2114.07	1.70145
2114.21	3.33438
2114.35	0.922638
2114.49	4.68506
2114.63	6.01315
2114.77	8.1348
2114.91	7.95523
2115.05	9.34894
2115.2	2.53564
2115.34	5.46024
2115.48	3.37213
2115.62	0.646393
2115.76	11.1225
2115.9	5.33429
2116.04	7.07516
2116.18	2.66766
2116.32	0.478607
2116.46	8.05142
2116.61	3.59296
2116.75	4.96317
2116.89	4.93839
2117.03	6.49802
2117.17	8.18961
2117.31	4.61801
2117.45	6.62274
2117.59	4.58347
2117.73	7.18454
2117.87	4.48288
2118.02	9.96677
2118.16	7.08881
2118.3	4.88931
2118.44	7.896
2118.58	3.55194
2118.72	8.18451
2118.86	1.39273
2119	6.46329
2119.14	5.21335
2119.28	6.3353
2119.43	7.30435
2119.57	1.5451
2119.71	6.48145
2119.85	4.87662
2119.99	3.66589
2120.13	8.20792
2120.27	5.31146
2120.41	7.24094
2120.55	9.32562
2120.69	6.21136
2120.83	8.23053
2120.98	5.48962
2121.12	4.61169
2121.26	4.6889
2121.4	13.8371
2121.54	7.88846
2121.68	8.51422
2121.82	7.58075
2121.96	6.13245
2122.1	2.79721
2122.24	7.52545
2122.38	8.85788
2122.52	6.79865
2122.66	9.19254
2122.81	6.18079
2122.95	5.8605
2123.09	6.33313
2123.23	11.6639
2123.37	4.24493
2123.51	3.07553
2123.65	7.30579
2123.79	4.80048
2123.93	4.96817
2124.07	6.45944
2124.21	6.57202
2124.35	4.82874
2124.49	3.7272
2124.64	6.94989
2124.78	7.70697
2124.92	12.4003
2125.06	8.34171
2125.2	6.14026
2125.34	4.27856
2125.48	2.57175
2125.62	7.58487
2125.76	4.79181
2125.9	4.18469
2126.04	8.271
2126.18	8.9523
2126.32	3.9397
2126.46	7.11356
2126.6	6.33691
2126.74	1.67676
2126.88	7.52774
2127.02	4.49146
2127.17	4.92212
2127.31	6.79355
2127.45	12.2298
2127.59	7.72098
2127.73	7.19971
2127.87	7.23013
2128.01	8.65927
2128.15	6.22589
2128.29	4.202
2128.43	7.20016
2128.57	4.41187
2128.71	6.93243
2128.85	7.35428
2128.99	9.09479
2129.13	9.75473
2129.27	8.1517
2129.41	7.0899
2129.56	5.879
2129.7	6.89822
2129.84	5.64532
2129.98	3.50357
2130.12	8.97769
2130.26	2.5365
2130.4	5.41479
2130.54	4.64905
2130.68	5.1235
2130.82	8.34988
2130.96	5.37741
2131.1	7.21356
2131.24	6.21661
2131.38	7.73489
2131.52	18.481
2131.66	7.23492
2131.8	3.57391
2131.94	10.6324
2132.08	7.05084
2132.22	2.05005
2132.36	9.2178
2132.5	4.77127
2132.64	16.1541
2132.78	4.0994
2132.92	7.07886
2133.06	5.18799
2133.21	4.76556
2133.35	4.96484
2133.49	6.56027
2133.63	6.44452
2133.77	6.75641
2133.91	2.87277
2134.05	4.45261
2134.19	5.2377
2134.33	6.51303
2134.47	10.1859
2134.61	8.12213
2134.75	4.35947
2134.89	5.15222
2135.03	3.45148
2135.17	4.98492
2135.31	7.74899
2135.45	6.75793
2135.59	6.50897
2135.73	6.50305
2135.87	5.69998
2136.01	7.76831
2136.15	7.24838
2136.29	10.3529
2136.43	9.75974
2136.57	7.82523
2136.71	9.47083
2136.85	7.23032
2136.99	6.15012
2137.13	4.80399
2137.27	6.00562
2137.41	6.23322
2137.55	6.80978
2137.69	5.79376
2137.83	12.7171
2137.97	8.17538
2138.11	7.19171
2138.25	6.40256
2138.39	3.37927
2138.53	5.44476
2138.67	7.34225
2138.81	4.72791
2138.95	8.11377
2139.09	8.19858
2139.23	5.70096
2139.37	4.63953
2139.51	8.11472
2139.65	10.152
2139.79	1.52957
2139.93	5.08411
2140.07	4.61478
2140.21	7.34183
2140.35	9.20804
2140.49	5.69034
2140.63	6.54205
2140.77	5.58539
2140.91	6.29431
2141.05	8.0394
2141.19	7.65698
2141.33	9.0416
2141.47	6.005
2141.61	4.97864
2141.75	8.80023
2141.89	6.70496
2142.03	6.35211
2142.17	7.80829
2142.31	8.14505
2142.45	8.37823
2142.59	7.06058
2142.73	6.57211
2142.87	7.58386
2143.01	8.19324
2143.15	7.40274
2143.29	4.6109
2143.43	5.60236
2143.57	7.03162
2143.71	7.07892
2143.85	6.19193
2143.99	3.10117
2144.13	5.61667
2144.27	3.50085
2144.41	7.11435
2144.55	8.35648
2144.69	8.86136
2144.83	6.22382
2144.97	10.0919
2145.11	7.82788
2145.25	2.61026
2145.39	5.05576
2145.53	7.26056
2145.67	5.37283
2145.81	5.6752
2145.95	8.75705
2146.09	7.0097
2146.23	5.17163
2146.37	4.95154
2146.51	4.12592
2146.65	6.32959
2146.79	5.72052
2146.93	7.68445
2147.07	5.54608
2147.21	4.09033
2147.35	5.72635
2147.49	7.71698
2147.63	4.99112
2147.76	6.4949
2147.9	7.11856
2148.04	7.59946
2148.18	7.45355
2148.32	8.5838
2148.46	10.8286
2148.52	11.7844
2148.66	7.78485
2148.8	7.29294
2148.94	9.44571
2149.09	7.22388
2149.23	12.8753
2149.37	6.52164
2149.51	13.1069
2149.65	5.681
2149.8	7.54456
2149.94	9.47513
2150.08	1.49057
2150.22	4.22916
2150.36	4.02911
2150.51	5.69006
2150.65	6.29889
2150.79	9.08047
2150.93	11.6227
2151.07	8.89828
2151.22	3.21912
2151.36	5.43774
2151.5	5.50693
2151.64	11.9244
2151.78	8.3038
2151.93	7.46625
2152.07	4.05276
2152.21	7.81134
2152.35	6.0538
2152.5	3.9133
2152.64	7.13412
2152.78	10.2117
2152.92	6.13113
2153.06	3.97974
2153.21	3.89026
2153.35	9.11716
2153.49	4.09784
2153.63	5.20361
2153.77	4.30585
2153.91	2.98822
2154.06	4.38803
2154.2	4.94769
2154.34	4.48328
2154.48	7.16125
2154.62	8.85623
2154.77	7.02771
2154.91	5.91528
2155.05	9.0455
2155.19	8.98383
2155.33	9.93216
2155.48	3.89771
2155.62	5.58835
2155.76	9.7767
2155.9	8.19135
2156.04	6.17392
2156.19	2.29242
2156.33	11.9316
2156.47	4.41898
2156.61	7.07819
2156.75	6.54303
2156.89	10.046
2157.04	8.18381
2157.18	3.75296
2157.32	8.30643
2157.46	3.45639
2157.6	9.3519
2157.74	18.178
2157.89	8.37759
2158.03	4.23547
2158.17	3.89853
2158.31	2.12607
2158.45	2.89697
2158.59	1.94397
2158.74	3.09027
2158.88	3.8577
2159.02	10.4994
2159.16	5.98566
2159.3	3.32904
2159.45	6.30081
2159.59	9.34317
2159.73	7.96561
2159.87	3.90359
2160.01	6.38
2160.15	4.75369
2160.3	3.25415
2160.44	6.69089
2160.58	4.05826
2160.72	8.75043
2160.86	10.8069
2161	5.89548
2161.15	1.65793
2161.29	9.75104
2161.43	9.14465
2161.57	2.67941
2161.71	1.51819
2161.85	7.03891
2161.99	3.61899
2162.14	9.88409
2162.28	9.54825
2162.42	9.48273
2162.56	4.22839
2162.7	5.15027
2162.84	6.99442
2162.99	6.76065
2163.13	3.26138
2163.27	3.84811
2163.41	5.63699
2163.55	1.42166
2163.69	7.03983
2163.84	6.89102
2163.98	8.27087
2164.12	8.51279
2164.26	6.27045
2164.4	8.7905
2164.54	5.97375
2164.68	4.67691
2164.83	6.60675
2164.97	1.76553
2165.11	5.93835
2165.25	8.39539
2165.39	5.72488
2165.53	8.83429
2165.68	7.47266
2165.82	5.93759
2165.96	7.12396
2166.1	8.36783
2166.24	4.33481
2166.38	2.66629
2166.52	5.24847
2166.66	9.31451
2166.81	8.12006
2166.95	2.67545
2167.09	2.6727
2167.23	6.30966
2167.37	6.16629
2167.51	3.48471
2167.65	3.17148
2167.8	-0.30545
2167.94	6.96216
2168.08	5.80371
2168.22	8.46606
2168.36	2.83185
2168.5	6.29181
2168.64	8.69727
2168.78	6.04413
2168.93	7.71042
2169.07	2.85239
2169.21	4.91956
2169.35	5.06683
2169.49	5.69843
2169.63	6.19907
2169.77	6.06287
2169.91	1.60144
2170.06	6.58298
2170.2	1.45819
2170.34	2.80496
2170.48	5.35565
2170.62	7.71085
2170.76	7.67139
2170.9	0.482666
2171.04	1.8797
2171.19	1.31412
2171.33	3.71655
2171.47	9.55966
2171.61	3.11472
2171.75	5.44113
2171.89	7.09601
2172.03	7.30994
2172.17	4.81305
2172.32	4.92313
2172.46	5.78848
2172.6	6.88654
2172.74	3.71545
2172.88	7.06259
2173.02	0.31134
2173.16	6.62839
2173.3	2.42899
2173.45	1.5224
2173.59	7.23465
2173.73	6.40997
2173.87	5.01791
2174.01	7.50763
2174.15	9.53659
2174.29	6.54172
2174.43	5.93976
2174.57	8.72806
2174.72	3.26666
2174.86	8.53241
2175	8.21246
2175.14	3.53986
2175.28	5.6131
2175.42	7.84131
2175.56	1.08777
2175.7	2.9133
2175.84	5.59424
2175.98	8.077
2176.13	3.16858
2176.27	5.63641
2176.41	2.84119
2176.55	3.78519
2176.69	9.0593
2176.83	2.07272
2176.97	5.84518
2177.11	14.2533
2177.25	-0.308136
2177.39	2.4454
2177.53	5.32648
2177.68	1.97321
2177.82	1.72836
2177.96	4.11826
2178.1	1.8645
2178.24	3.07254
2178.38	7.67209
2178.52	3.24628
2178.66	3.83902
2178.8	2.79639
2178.94	3.11172
2179.08	4.56927
2179.23	8.84036
2179.37	4.7449
2179.51	1.26422
2179.65	4.95425
2179.79	6.30179
2179.93	4.84293
2180.07	1.61716
2180.21	-3.05917
2180.35	-0.163849
2180.49	6.53629
2180.63	3.98886
2180.78	0.954529
2180.92	2.52823
2181.06	8.37897
2181.2	3.17709
2181.34	-1.52917
2181.48	3.87592
2181.62	3.15891
2181.76	11.9871
2181.9	2.45013
2182.04	4.01764
2182.18	6.83023
2182.32	-0.832611
2182.46	1.85574
2182.61	2.50775
2182.75	6.29025
2182.89	4.97858
2183.03	5.56778
2183.17	4.14935
2183.31	9.68405
2183.45	0.714844
2183.59	3.71622
2183.73	0.761993
2183.87	5.21646
2184.01	3.58777
2184.15	9.06421
2184.29	3.46674
2184.43	4.67673
2184.57	5.03656
2184.72	1.49683
2184.86	1.75363
2185	4.56808
2185.14	5.50067
2185.28	4.49677
2185.42	1.09442
2185.56	-0.393982
2185.7	2.92441
2185.84	1.37292
2185.98	1.24646
2186.12	7.27283
2186.26	4.20706
2186.4	0.424286
2186.54	3.73941
2186.68	7.43961
2186.82	2.33881
2186.96	4.97983
2187.1	1.31949
2187.25	2.57721
2187.39	3.17972
2187.53	2.88614
2187.67	9.32785
2187.81	2.48276
2187.95	-1.96091
2188.09	2.0665
2188.23	2.26846
2188.37	1.0246
2188.51	6.57919
2188.65	1.20554
2188.79	5.90768
2188.93	0.338654
2189.07	3.51828
2189.21	5.16321
2189.35	0.975342
2189.49	7.50369
2189.63	3.39581
2189.77	7.19305
2189.92	2.03476
2190.06	3.58307
2190.2	4.0166
2190.34	9.19705
2190.48	-1.53635
2190.62	3.18091
2190.76	-0.186646
2190.9	1.36084
2191.04	3.71194
2191.18	1.98535
2191.32	1.15393
2191.46	1.85382
2191.6	3.19214
2191.74	6.60529
2191.88	9.47464
2192.02	1.3074
2192.16	2.63828
2192.3	-2.60239
2192.44	4.44418
2192.58	5.50479
2192.72	3.08505
2192.86	-1.0676
2193	2.25037
2193.14	7.95703
2193.28	-1.76059
2193.42	3.13126
2193.56	0.878235
2193.7	-1.07278
2193.84	5.2291
2193.98	3.36612
2194.13	7.33524
2194.27	0.0743408
2194.41	1.16809
2194.55	-0.418549
2194.69	3.37103
2194.83	0.334381
2194.97	6.23315
2195.11	8.13486
2195.25	0.535736
2195.39	-1.89017
2195.53	1.15582
2195.67	5.58673
2195.81	0.259094
2195.95	6.51389
2196.09	2.66364
2196.23	1.56879
2196.37	-0.407471
2196.51	0.315521
2196.65	0.887177
2196.79	4.49872
2196.93	3.13599
2197.07	3.99252
2197.21	-2.43021
2197.35	5.19733
2197.49	-2.1474
2197.63	-0.501129
2197.77	4.05231
2197.91	0.505951
2198.05	5.23984
2198.19	3.58594
2198.33	0.855164
2198.47	3.67871
2198.61	1.31689
2198.75	1.37192
2198.89	6.3024
2199.03	4.0578
2199.17	3.80319
2199.31	7.2933
2199.45	-0.848785
2199.59	3.5986
2199.73	1.42151
2199.87	3.814
2200.01	1.27295
2200.15	-0.78479
2200.29	1.99997
2200.43	1.54669
2200.57	4.2052
2200.71	7.17447
2200.85	2.97284
2200.99	-4.30518
2201.13	0.0505066
2201.27	1.62155
2201.41	-3.68378
2201.55	0.0156555
2201.69	-0.218079
2201.83	1.5394
2201.97	1.96799
2202.11	0.603973
2202.25	-2.24194
2202.39	1.69278
2202.53	0.153473
2202.67	2.58096
2202.81	3.41861
2202.95	-1.29794
2203.09	-0.878113
2203.23	-0.266113
2203.37	2.40674
2203.51	0.315826
2203.65	-0.963928
2203.79	-0.990326
2203.93	0.795868
2204.07	-0.882111
2204.21	0.526123
2204.35	-2.22556
2204.49	-0.907166
2204.63	0.346649
2204.77	-0.364868
2204.91	-2.07837
2205.05	2.43591
2205.19	0.223053
2205.33	0.550629
2205.47	-1.14798
2205.61	-0.941132
2205.75	-0.897003
2205.89	-0.505524
2206.02	0.01297
2206.16	-2.75046
2206.3	5.28412
2206.44	-3.82364
2206.58	1.26105
2206.72	1.46658
2206.86	2.65228
2207	4.0972
2207.14	1.47156
2207.28	1.47635
2207.42	0.0941772
2207.56	0.823059
2207.7	-2.41592
2207.84	-0.676849
2207.98	-1.42645
2208.12	1.50082
2208.26	-1.28967
2208.4	-0.312408
2208.54	4.06265
2208.68	1.68634
2208.82	1.92062
2208.96	-0.952728
2209.1	-1.81174
2209.24	5.12747
2209.38	-2.5618
2209.52	2.95624
2209.66	1.32834
2209.8	-1.59735
2209.94	0.110077
2210.08	2.56146
2210.22	-0.758179
2210.35	1.67331
2210.49	0.938049
2210.63	3.03375
2210.77	0.290527
2210.91	-2.70456
2211.05	-0.130981
2211.19	0.500854
2211.33	1.24756
2211.47	-1.59198
2211.61	-1.10513
2211.75	-1.23251
2211.89	-1.25061
2212.03	-0.663727
2212.17	-2.47833
2212.31	0.178101
2212.45	-3.87735
2212.59	0.367065
2212.73	4.00818
2212.87	-2.0578
2213.01	0.0482483
2213.15	0.713684
2213.28	-2.1113
2213.42	7.42142
2213.56	0.333252
2213.7	1.73618
2213.84	0.0940247
2213.98	1.35117
2214.12	-2.79568
2214.26	-0.145416
2214.4	-1.80475
2214.54	1.91278
2214.68	2.32416
2214.82	1.5307
2214.96	5.05481
2215.1	-0.410065
2215.24	3.52499
2215.38	3.06439
2215.52	-2.76355
2215.65	-0.359314
2215.79	-2.51239
2215.93	-1.72678
2216.07	-2.56909
2216.21	3.47086
2216.35	-1.29446
2216.49	8.3168
2216.63	-2.12778
2216.77	-2.31161
2216.91	-2.02899
2217.05	-2.18625
2217.19	-4.93283
2217.33	-2.23224
2217.47	3.34937
2217.6	3.37332
2217.74	-1.8504
2217.88	-0.0941162
2218.02	-3.91589
2218.16	0.878723
2218.3	-0.44397
2218.44	4.19022
2218.58	0.205811
2218.72	-1.00027
2218.86	-2.22525
2219	-2.71454
2219.14	-4.08261
2219.28	4.27002
2219.41	2.39273
2219.55	-0.704529
2219.69	-2.10349
2219.83	2.11115
2219.97	-1.68875
2220.11	2.68713
2220.25	1.46658
2220.39	-0.0446777
2220.53	-2.16452
2220.67	-2.11224
2220.81	2.6716
2220.95	5.93582
2221.08	1.89578
2221.22	6.07739
2221.36	1.11923
2221.5	-1.96765
2221.64	3.68405
2221.78	1.95816
2221.92	-1.63889
2222.06	-1.79623
2222.2	0.749237
2222.34	0.353577
2222.48	-0.770966
2222.61	0.760101
2222.75	2.90106
2222.89	2.49548
2223.03	-3.11526
2223.17	1.80417
2223.31	-0.544739
2223.45	0.377106
2223.59	-2.67383
2223.73	2.16745
2223.87	2.33075
2224	3.46024
2224.14	-2.33292
2224.28	4.27725
2224.42	1.89789
2224.56	-1.68954
2224.7	0.109863
2224.84	-1.75064
2224.98	4.91559
2225.12	4.89304
2225.26	1.98471
2225.39	-0.592285
2225.53	11.0027
2225.67	2.05212
2225.81	-0.650513
2225.95	-0.861145
2226.09	2.39948
2226.23	-0.158234
2226.37	0.146759
2226.51	-0.82486
2226.64	-3.21423
2226.78	-2.34561
2226.92	1.1626
2227.06	-4.00504
2227.2	0.257629
2227.34	-1.57898
2227.48	-1.02661
2227.62	2.48477
2227.76	-2.87036
2227.89	-2.74536
2228.03	5.84109
2228.17	3.03128
2228.31	6.10825
2228.45	-0.179871
2228.59	2.21628
2228.73	0.455719
2228.87	2.7998
2229	2.13507
2229.14	-0.670746
2229.28	3.45563
2229.42	-0.689423
2229.56	2.72711
2229.7	2.66391
2229.84	-1.59814
2229.98	6.68973
2230.11	-1.51611
2230.25	0.591095
2230.39	-0.0177002
2230.53	2.42566
2230.67	2.43173
2230.81	0.327423
2230.95	1.09323
2231.09	-4.02762
2231.22	3.14679
2231.36	-0.677551
2231.5	-1.66727
2231.64	-3.28802
2231.78	-0.941132
2231.92	-0.779388
2232.06	0.782379
2232.2	1.86197
2232.33	1.81976
2232.47	3.27963
2232.61	3.52835
2232.75	-0.259521
2232.89	1.29401
2233.03	0.607086
2233.17	-0.130524
2233.3	1.50137
2233.44	0.662567
2233.58	3.14667
2233.72	-0.750061
2233.86	-0.254486
2234	9.19153
2234.14	-2.29865
2234.27	-4.12799
2234.41	4.70416
2234.55	2.3707
2234.69	2.63641
2234.83	2.30298
2234.97	3.42471
2235.11	0.696106
2235.24	0.557526
2235.38	-1.05887
2235.52	2.64883
2235.66	0.029541
2235.8	-1.01514
2235.94	3.22812
2236.08	1.99265
2236.21	11.8789
2236.35	-1.89865
2236.49	3.38522
2236.63	3.22226
2236.77	-0.477783
2236.91	-0.187775
2237.04	4.91824
2237.18	4.89575
2237.32	3.2934
2237.46	0.298889
2237.6	-0.975708
2237.74	3.17029
2237.88	-3.68893
2238.01	5.85876
2238.15	2.80463
2238.29	5.30054
2238.43	-1.11752
2238.57	3.16327
2238.71	5.43188
2238.84	2.16547
2238.98	2.11517
2239.12	5.59598
2239.26	2.69727
2239.4	6.71924
2239.53	3.43863
2239.67	-0.765442
2239.81	2.28275
2239.95	2.27393
2240.09	1.94522
2240.23	3.21878
2240.37	0.845734
2240.5	1.30621
2240.64	-1.37054
2240.78	4.27722
2240.92	0.547638
2241.06	2.84848
2241.2	5.47272
2241.33	0.00402832
2241.47	-1.44522
2241.61	3.25467
2241.75	1.6691
2241.89	1.73691
2242.02	-0.964935
2242.16	2.58337
2242.3	3.09064
2242.44	1.32614
2242.58	3.15512
2242.72	-3.16318
2242.85	2.87335
2242.99	-2.22226
2243.13	8.68304
2243.27	-0.510681
2243.41	1.93921
2243.54	3.05768
2243.68	0.646851
2243.82	-2.06433
2243.96	1.96558
2244.1	2.48526
2244.24	3.99841
2244.37	-0.233063
2244.51	2.92929
2244.65	-0.279388
2244.79	1.76746
2244.93	4.92883
2245.06	-1.01163
2245.2	8.87286
2245.34	7.72095
2245.48	2.49454
2245.62	2.34311
2245.76	3.54449
2245.89	4.02295
2246.03	5.29068
2246.17	-1.03864
2246.31	1.75708
2246.45	2.15701
2246.58	5.08475
2246.72	2.39468
2246.86	2.16766
2247	5.20657
2247.13	5.69479
2247.27	4.18546
2247.41	-2.25656
2247.55	6.6105
2247.69	0.561249
2247.83	0.203583
2247.96	-0.0345459
2248.1	3.08072
2248.24	1.96805
2248.38	6.45911
2248.52	-0.314484
2248.65	0.956451
2248.79	0.403076
2248.93	2.01117
2249.07	5.74979
2249.21	0.587372
2249.34	3.45261
2249.48	0.822144
2249.62	5.94424
2249.76	10.5225
2249.89	5.94046
2250.03	12.0165
2250.17	1.86203
2250.31	2.45966
2250.45	-0.107544
2250.58	1.80963
2250.72	3.26205
2250.86	0.624115
2251	2.5874
2251.14	2.54416
2251.27	4.97501
2251.41	-0.203979
2251.55	3.63019
2251.69	1.41904
2251.82	3.76767
2251.96	6.43707
2252.1	2.30276
2252.24	-1.22702
2252.38	4.16443
2252.51	3.67929
2252.65	2.64029
2252.79	2.89102
2252.93	2.96036
2253.06	0.433014
2253.2	0.249115
2253.34	5.77277
2253.48	-1.3067
2253.62	6.47693
2253.75	3.93539
2253.89	2.24908
2254.03	2.9108
2254.17	0.887817
2254.3	6.59531
2254.44	4.32275
2254.58	0.508545
2254.72	-0.0392456
2254.86	4.09091
2254.99	1.47116
2255.13	2.96692
2255.27	2.19379
2255.41	-0.888641
2255.54	2.35727
2255.68	2.96945
2255.82	7.65073
2255.96	22.408
2256.09	-0.927124
2256.23	0.656708
2256.37	0.73468
2256.51	-1.80109
2256.65	1.23676
2256.78	1.95078
2256.92	6.0365
2257.06	4.49869
2257.2	3.76285
2257.33	3.94891
2257.47	1.33383
2257.61	-0.425476
2257.75	1.13943
2257.88	3.09756
2258.02	2.4353
2258.16	4.02328
2258.3	7.01724
2258.43	-1.47278
2258.57	2.99442
2258.71	0.46698
2258.85	-0.414825
2258.98	1.33801
2259.12	3.29037
2259.26	10.9533
2259.4	3.85791
2259.53	4.07593
2259.67	2.98074
2259.81	4.63922
2259.95	4.43164
2260.08	2.22861
2260.22	4.05316
2260.36	8.15503
2260.5	7.61691
2260.63	6.26785
2260.77	1.99088
2260.91	1.80862
2261.05	1.67792
2261.18	7.31668
2261.32	0.425323
2261.46	3.50925
2261.6	6.88068
2261.73	4.94806
2261.87	1.8287
2262.01	0.271057
2262.14	-0.267212
2262.28	1.40588
2262.42	3.40594
2262.56	4.65543
2262.69	5.47714
2262.83	4.53348
2262.97	5.28699
2263.11	3.52704
2263.24	6.60718
2263.38	2.13922
2263.52	0.187225
2263.66	0.507141
2263.79	3.59702
2263.93	3.46643
2264.07	4.76364
2264.2	4.25943
2264.34	3.51746
2264.48	1.85864
2264.62	1.8428
2264.75	1.71292
2264.89	3.1882
2265.03	7.06628
2265.17	4.96091
2265.3	2.36011
2265.44	2.85928
2265.58	0.720734
2265.72	1.07501
2265.85	2.82996
2265.99	1.81403
2266.13	2.76813
2266.26	5.49231
2266.4	1.98404
2266.54	3.09384
2266.68	4.24524
2266.81	3.01089
2266.95	1.74213
2267.09	3.39697
2267.22	3.44687
2267.36	0.338776
2267.5	7.27316
2267.64	7.23715
2267.77	3.43759
2267.91	4.4411
2268.05	5.14117
2268.18	6.33832
2268.32	7.25891
2268.46	0.399811
2268.6	7.1019
2268.73	6.5885
2268.87	3.14536
2269.01	5.33026
2269.14	3.57413
2269.28	-2.3364
2269.42	1.15479
2269.56	4.20551
2269.69	7.87686
2269.83	6.52084
2269.97	2.00629
2270.1	4.1217
2270.24	4.02051
2270.38	4.37952
2270.51	6.17371
2270.65	6.79407
2270.79	5.13211
2270.93	5.27405
2271.06	5.479
2271.2	1.19397
2271.34	6.61771
2271.47	9.46265
2271.61	6.81311
2271.75	-0.28717
2271.88	11.6684
2272.02	4.14673
2272.16	7.11484
2272.3	2.37152
2272.43	7.37277
2272.57	8.70813
2272.71	2.5289
2272.84	1.51563
2272.98	5.00909
2273.12	5.1976
2273.25	6.69778
2273.39	7.90054
2273.53	4.89835
2273.66	4.83109
2273.8	3.28427
2273.94	6.64627
2274.08	2.54968
2274.21	2.51898
2274.35	1.77106
2274.49	4.75436
2274.62	4.26913
2274.76	3.19098
2274.9	1.68884
2275.03	2.61514
2275.17	4.38232
2275.31	3.17996
2275.44	6.51791
2275.58	4.49341
2275.72	6.7453
2275.85	1.35565
2275.99	5.07275
2276.13	-0.226624
2276.26	7.60471
2276.4	7.99112
2276.54	7.59048
2276.67	4.4826
2276.81	1.50217
2276.95	8.41782
2277.09	7.75879
2277.22	5.8779
2277.36	-3.87225
2277.5	4.9425
2277.63	15.1346
2277.77	5.21399
2277.91	1.3902
2278.04	3.16562
2278.18	3.8479
2278.32	1.73114
2278.45	5.43762
2278.59	1.53244
2278.73	5.16171
2278.86	4.29889
2279	4.173
2279.14	3.52069
2279.27	5.66479
2279.41	1.20212
2279.55	1.28204
2279.68	2.6951
2279.82	1.8179
2279.96	-0.310059
2280.09	3.01978
2280.23	2.81168
2280.37	5.13132
2280.5	2.07825
2280.64	13.0486
2280.78	0.667419
2280.91	3.35574
2281.05	0.823669
2281.19	5.09509
2281.32	2.11884
2281.46	1.86816
2281.59	0.191101
2281.73	6.30576
2281.87	5.20105
2282	3.97577
2282.14	5.50064
2282.28	3.12854
2282.41	1.77054
2282.55	20.7138
2282.69	-0.631165
2282.82	4.83548
2282.96	3.67798
2283.1	7.78595
2283.23	6.33963
2283.37	6.73325
2283.51	4.17645
2283.64	8.10925
2283.78	6.12466
2283.92	-0.349731
2284.05	-1.75812
2284.19	5.66269
2284.32	1.20731
2284.46	5.87933
2284.6	6.61728
2284.73	5.2652
2284.87	4.23541
2285.01	2.86862
2285.14	2.78583
2285.28	2.34753
2285.42	6.53928
2285.55	-0.457672
2285.69	-0.703247
2285.83	1.24966
2285.96	6.64673
2286.1	0.057312
2286.23	3.82712
2286.37	1.60385
2286.51	2.29645
2286.64	3.86179
2286.78	9.98444
2286.92	4.62268
2287.05	0.65152
2287.19	1.45834
2287.33	3.24521
2287.46	0.562469
2287.6	4.99057
2287.73	-2.5845
2287.87	-3.02042
2288.01	5.9375
2288.14	1.26904
2288.28	2.96078
2288.42	2.79486
2288.55	5.05402
2288.69	4.23807
2288.82	1.58472
2288.96	4.40775
2289.1	0.192139
2289.23	7.66257
2289.37	1.48285
2289.51	4.10086
2289.64	5.10657
2289.78	3.06186
2289.91	1.51843
2290.05	-1.52594
2290.19	1.63657
2290.32	3.94492
2290.46	4.58942
2290.6	4.00275
2290.73	3.15314
2290.87	7.52374
2291	2.94406
2291.14	3.95313
2291.28	2.71222
2291.41	-0.747162
2291.55	1.60593
2291.68	-0.467529
2291.82	2.10968
2291.96	2.79282
2292.09	8.09848
2292.23	4.56729
2292.36	-1.47992
2292.5	0.888702
2292.64	1.89215
2292.77	0.4198
2292.91	1.02826
2293.05	5.26764
2293.18	1.19131
2293.32	4.84933
2293.45	5.08847
2293.59	10.041
2293.73	5.99255
2293.86	6.28885
2294	1.09573
2294.13	-0.534332
2294.27	1.68118
2294.41	3.448
2294.54	-1.07376
2294.68	2.21329
2294.81	-0.934387
2294.95	7.46121
2295.09	3.42899
2295.22	3.42551
2295.36	-0.53241
2295.49	0.169708
2295.63	-0.538025
2295.77	6.94705
2295.9	4.47049
2296.04	2.31421
2296.17	-0.0638123
2296.31	0.21286
2296.45	0.20282
2296.58	3.81122
2296.72	-0.219696
2296.85	2.81769
2296.99	0.276581
2297.13	-1.12766
2297.26	2.18573
2297.4	1.30591
2297.53	0.103851
2297.67	1.09909
2297.8	2.99652
2297.94	1.20071
2298.08	4.35281
2298.21	-1.12402
2298.35	0.892975
2298.48	-0.174408
2298.62	-1.07379
2298.75	7.05255
2298.89	0.521179
2299.03	3.94974
2299.16	3.84836
2299.3	-1.22491
2299.44	-2.01056
2299.57	4.05975
2299.71	-0.17453
2299.84	4.90158
2299.98	3.23123
2300.11	-0.788849
2300.25	-0.0947876
2300.39	-0.00839233
2300.52	4.65564
2300.66	6.50842
2300.79	1.20218
2300.93	3.98108
2301.06	0.213531
2301.2	7.25327
2301.33	-0.0455017
2301.47	-2.04773
2301.61	-4.1232
2301.74	4.14343
2301.88	4.92953
2302.01	4.43018
2302.15	1.81149
2302.28	-1.48346
2302.42	-1.12384
2302.56	1.58331
2302.69	-4.0209
2302.83	2.51508
2302.96	4.53314
2303.1	2.50748
2303.23	0.937195
2303.37	-0.488312
2303.51	2.30173
2303.64	1.59778
2303.78	-1.48376
2303.91	-0.294586
2304.05	-1.10281
2304.18	-1.36893
2304.32	0.766418
2304.46	0.413452
2304.59	2.41672
2304.73	-0.917419
2304.86	-2.7085
2305	6.39859
2305.13	1.10162
2305.27	3.32733
2305.4	-1.70715
2305.54	1.64032
2305.68	6.13235
2305.81	4.84067
2305.95	2.86331
2306.08	-0.0252075
2306.22	2.86588
2306.35	0.531281
2306.49	2.28101
2306.62	-0.988068
2306.76	4.18228
2306.89	-0.936768
2307.03	-0.0912781
2307.17	1.85233
2307.3	2.48611
2307.44	-2.59821
2307.57	1.27393
2307.71	-3.33066
2307.84	-3.69699
2307.98	0.856628
2308.11	4.52029
2308.25	-1.87
2308.38	-0.981293
2308.52	1.31058
2308.66	-3.34744
2308.79	-1.51291
2308.93	-1.94626
2309.06	-1.66452
2309.2	-1.92029
2309.33	2.96652
2309.47	23.0432
2309.6	0.279053
2309.74	0.564453
2309.87	2.40341
2310.01	0.932007
2310.14	4.52563
2310.28	1.42087
2310.42	-1.29276
2310.55	-0.346649
2310.69	2.90244
2310.82	-2.13522
2310.96	1.79297
2311.09	0.359985
2311.23	1.14197
2311.36	3.19818
2311.5	1.9852
2311.63	3.21643
2311.77	-5.95273
2311.9	-0.759827
2312.04	-0.225677
2312.17	0.158234
2312.31	-0.0445557
2312.44	4.50339
2312.58	-2.11063
2312.72	0.295258
2312.85	1.44705
2312.99	-0.305939
2313.12	-1.89105
2313.26	-3.78165
2313.39	-4.48016
2313.53	0.0388184
2313.66	-0.609497
2313.8	7.62598
2313.93	2.00073
2314.07	2.1221
2314.2	-2.1348
2314.34	4.31915
2314.47	3.77802
2314.61	2.05432
2314.74	1.5593
2314.88	-3.21329
2315.01	4.76855
2315.15	2.32144
2315.28	6.25912
2315.42	0.0678406
2315.55	2.27783
2315.69	-2.6958
2315.82	0.461029
2315.96	-0.61618
2316.09	-2.25903
2316.23	2.78146
2316.36	-2.93854
2316.5	-2.35986
2316.63	1.02487
2316.77	-0.95578
2316.9	-1.05811
2317.04	-1.67361
2317.18	-0.0884705
2317.31	4.41342
2317.44	-1.53278
2317.58	-0.403259
2317.71	-0.640076
2317.85	-0.265594
2317.98	0.963409
2318.12	0.821747
2318.26	2.11166
2318.39	2.12213
2318.52	-0.78302
2318.66	-3.8952
2318.79	0.631348
2318.93	0.850769
2319.06	-1.38339
2319.2	1.11179
2319.33	-1.96283
2319.47	-0.622406
2319.6	3.44574
2319.74	0.2117
2319.87	2.82361
2320.01	-4.08398
2320.14	-2.66235
2320.28	-6.67642
2320.41	2.98007
2320.55	0.950226
2320.68	-2.26572
2320.82	7.11707
2320.95	-3.77521
2321.09	-1.17523
2321.22	1.95554
2321.36	-4.16122
2321.49	-1.08524
2321.63	3.84076
2321.76	7.11649
2321.9	2.63083
2322.03	2.42932
2322.17	0.958313
2322.3	7.43173
2322.44	1.39664
2322.57	-1.0278
2322.71	1.88266
2322.84	-0.601715
2322.98	1.33273
2323.11	5.6882
2323.25	1.05988
2323.38	-3.83548
2323.52	2.80115
2323.65	1.4462
2323.78	1.74319
2323.92	-1.23767
2324.05	2.19711
2324.19	1.02136
2324.32	3.58069
2324.46	1.67859
2324.59	-2.272
2324.73	-0.295807
2324.86	-1.04218
2325	4.60507
2325.13	3.36255
2325.27	4.19324
2325.4	2.90729
2325.54	-0.33493
2325.67	1.68417
2325.8	2.45193
2325.94	0.540009
2326.07	0.394836
2326.21	3.116
2326.34	4.78473
2326.48	0.891632
2326.61	-2.64792
2326.75	4.29266
2326.88	0.354858
2327.02	0.134918
2327.15	0.826019
2327.29	1.8725
2327.42	4.86478
2327.56	4.08823
2327.69	1.4166
2327.82	-5.36429
2327.96	-2.5799
2328.09	6.27682
2328.23	7.69507
2328.36	-1.4975
2328.5	4.86871
2328.63	4.58234
2328.77	-1.85745
2328.9	2.98605
2329.04	-2.08649
2329.17	-1.79977
2329.31	-1.68939
2329.44	2.72195
2329.57	1.75146
2329.71	6.1568
2329.84	-1.61871
2329.98	-0.313873
2330.11	-0.475861
2330.25	3.6608
2330.38	3.60846
2330.52	2.62042
2330.65	1.48477
2330.78	-0.739319
2330.92	3.26688
2331.05	-5.63092
2331.19	1.5498
2331.32	0.314728
2331.46	0.178345
2331.59	1.80545
2331.73	0.925995
2331.86	-2.23087
2331.99	-2.84973
2332.13	-0.234619
2332.26	-3.26096
2332.4	-1.61383
2332.53	1.24808
2332.67	-1.31842
2332.8	-1.18979
2332.94	0.127655
2333.07	1.04044
2333.2	0.0292053
2333.34	2.68158
2333.47	0.0456543
2333.61	3.0173
2333.74	2.47113
2333.88	0.872711
2334.01	-0.803253
2334.14	3.64948
2334.28	4.9295
2334.41	2.8631
2334.55	3.81366
2334.68	3.36227
2334.82	1.50125
2334.95	11.93
2335.08	-0.601196
2335.22	-0.613922
2335.35	4.09723
2335.49	4.10013
2335.62	-0.702576
2335.76	-0.456024
2335.89	1.18332
2336.02	0.549591
2336.16	-0.158112
2336.29	3.84631
2336.43	8.24875
2336.56	4.164
2336.7	4.68204
2336.83	5.13739
2336.96	0.828491
2337.1	-0.773865
2337.23	0.355469
2337.37	-0.595978
2337.5	3.50424
2337.63	6.06335
2337.77	5.12061
2337.9	5.50208
2338.04	13.4304
2338.17	-1.24762
2338.3	-0.71106
2338.44	7.24701
2338.57	4.88504
2338.71	3.3992
2338.84	8.37689
2338.98	2.33908
2339.11	3.12021
2339.24	13.5779
2339.38	4.51572
2339.51	10.0159
2339.65	12.8954
2339.78	12.7893
2339.91	14.2243
2340.05	3.84171
2340.18	4.27963
2340.32	2.00534
2340.45	6.74387
2340.58	4.5195
2340.72	10.9359
2340.85	6.0827
2340.99	1.44159
2341.12	4.01596
2341.25	7.40308
2341.39	11.5292
2341.52	1.97363
2341.66	6.16837
2341.79	1.67105
2341.92	1.07477
2342.06	6.68747
2342.19	4.88657
2342.33	0.762482
2342.46	4.34644
2342.59	5.19727
2342.73	2.21191
2342.86	2.54828
2343	1.39578
2343.13	0.661865
2343.26	0.565491
2343.4	4.31021
2343.53	1.92099
2343.67	0.361633
2343.8	6.80972
2343.93	4.36514
2344.07	-1.0976
2344.2	4.24088
2344.33	0.208191
2344.47	6.39566
2344.6	4.02826
2344.74	3.83914
2344.87	2.46478
2345	6.33389
2345.14	5.1579
2345.27	2.9133
2345.41	6.97787
2345.54	0.521393
2345.67	5.0051
2345.81	3.31247
2345.94	4.6636
2346.07	6.54047
2346.21	3.98035
2346.34	2.29608
2346.48	0.997192
2346.61	3.66409
2346.74	2.13815
2346.88	6.09164
2347.01	0.414368
2347.14	6.88562
2347.28	0.987
2347.41	4.85446
2347.55	2.4671
2347.68	1.50879
2347.81	3.39722
2347.95	0.971283
2348.08	5.51544
2348.22	2.15399
2348.35	4.11911
2348.48	1.54831
2348.62	0.813232
2348.75	1.49506
2348.88	3.29712
2349.02	3.77689
2349.15	-0.121124
2349.29	3.77942
2349.42	3.23776
2349.55	2.65591
2349.69	4.0452
2349.82	3.65283
2349.95	0.428406
2350.09	0.12738
2350.22	1.61624
2350.35	1.98999
2350.49	4.0834
2350.62	8.28708
2350.75	0.923492
2350.89	-0.269928
2351.02	1.63019
2351.16	2.90921
2351.29	2.6954
2351.42	1.26819
2351.56	5.15085
2351.69	3.32965
2351.82	3.66577
2351.96	-0.206818
2352.09	1.94391
2352.22	-1.80701
2352.36	1.75366
2352.49	4.40353
2352.62	0.166077
2352.76	-0.243896
2352.89	5.18393
2353.02	0.327728
2353.16	1.58548
2353.29	-0.914398
2353.43	0.417572
2353.56	0.737366
2353.69	1.32535
2353.83	1.79059
2353.96	0.669586
2354.09	8.09146
2354.23	0.118408
2354.36	1.40552
2354.49	3.17679
2354.63	-1.88995
2354.76	2.66382
2354.89	3.02554
2355.03	4.55566
2355.04	4.7038
2355.17	1.85803
2355.31	2.11398
2355.44	3.7446
2355.58	4.9697
2355.72	1.64804
2355.85	1.04993
2355.99	-1.67197
2356.12	4.918
2356.26	0.948792
2356.4	5.25281
2356.53	-0.694183
2356.67	0.381897
2356.8	8.74493
2356.94	-0.485931
2357.07	1.0174
2357.21	-2.86472
2357.35	3.16696
2357.48	1.08847
2357.62	8.66428
2357.75	1.16483
2357.89	5.3688
2358.03	2.03122
2358.16	1.62805
2358.3	3.81229
2358.43	1.25342
2358.57	4.87888
2358.7	3.7319
2358.84	3.97815
2358.98	-2.09167
2359.11	5.59409
2359.25	-2.76831
2359.38	-0.58844
2359.52	1.06268
2359.65	2.64337
2359.79	3.62485
2359.93	3.87143
2360.06	-0.970795
2360.2	0.562805
2360.33	4.17358
2360.47	-5.28033
2360.6	-3.06717
2360.74	0.834229
2360.88	-1.39642
2361.01	-2.83328
2361.15	0.362457
2361.28	-0.754333
2361.42	0.695892
2361.55	0.515167
2361.69	1.15915
2361.83	0.831848
2361.96	3.80817
2362.1	4.14182
2362.23	6.21622
2362.37	-1.60086
2362.5	2.34521
2362.64	1.66714
2362.77	0.994019
2362.91	0.763947
2363.04	-0.23349
2363.18	-1.996
2363.32	1.22244
2363.45	-0.248047
2363.59	7.56168
2363.72	6.48843
2363.86	1.73755
2363.99	3.54846
2364.13	-1.50885
2364.26	0.474823
2364.4	3.1915
2364.54	15.4133
2364.67	2.46692
2364.81	-1.00732
2364.94	-3.17133
2365.08	-0.65802
2365.21	-5.05533
2365.35	-0.578705
2365.48	2.1232
2365.62	-1.40784
2365.76	5.60596
2365.89	-1.78571
2366.03	0.214783
2366.16	2.74863
2366.3	7.23792
2366.43	2.66144
2366.57	-0.219635
2366.7	2.58743
2366.84	1.19919
2366.97	-0.31842
2367.11	1.89847
2367.24	1.06323
2367.38	2.86853
2367.52	4.38071
2367.65	3.61697
2367.79	1.24442
2367.92	-2.08463
2368.06	8.84735
2368.19	1.04337
2368.33	-2.44308
2368.46	0.378937
2368.6	-3.34119
2368.73	4.0712
2368.87	3.29086
2369	-0.591156
2369.14	-0.0317993
2369.27	-0.11969
2369.41	2.71625
2369.54	0.722351
2369.68	-2.02896
2369.82	-1.41733
2369.95	-4.27505
2370.09	0.891663
2370.22	2.73792
2370.36	-0.983246
2370.49	2.82007
2370.63	1.10538
2370.76	2.98511
2370.9	4.0379
2371.03	0.262146
2371.17	-1.31253
2371.3	6.68448
2371.44	-3.08255
2371.57	4.29172
2371.71	-0.398499
2371.84	-2.79483
2371.98	1.3031
2372.11	-1.25012
2372.25	4.90552
2372.38	0.231079
2372.52	1.68561
2372.66	5.10272
2372.79	3.53217
2372.92	-0.280487
2373.06	3.84616
2373.2	1.01746
2373.33	-1.73193
2373.47	1.40402
2373.6	1.72214
2373.74	7.33029
2373.87	1.65955
2374.01	2.45505
2374.14	1.62823
2374.28	-1.62485
2374.41	3.04224
2374.55	-2.90521
2374.68	0.189911
2374.82	-0.367828
2374.95	1.24478
2375.09	0.24704
2375.22	3.36447
2375.36	1.7222
2375.49	5.74612
2375.63	1.51428
2375.76	1.49869
2375.9	-0.175629
2376.03	3.24832
2376.17	3.87689
2376.3	0.0380859
2376.44	3.04126
2376.57	-0.0644836
2376.71	5.03726
2376.84	1.70593
2376.98	-1.19409
2377.11	5.24588
2377.25	0.830078
2377.38	-3.53833
2377.52	0.363708
2377.65	0.266205
2377.79	0.921631
2377.92	-2.5351
2378.06	3.13705
2378.19	-1.69446
2378.33	3.2384
2378.46	-0.367493
2378.6	10.5273
2378.73	-4.18314
2378.86	0.345642
2379	2.83975
2379.14	-1.14301
2379.27	-2.87482
2379.41	-0.260559
2379.54	-1.3728
2379.67	0.335815
2379.81	-1.24786
2379.94	0.564972
