#Acq. time (s)=	30
#Accumulations=	2
#Range (cm-¹)=	1200...2365
#Windows=	3
#Auto scanning=	Off
#Autofocus=	Off
#Macrospot=	Off
#AutoExposure=	Off
#Spike filter=	Multiple accum.
#Delay time (s)=	2
#Binning=	1
#Readout mode=	Signal
#DeNoise=	Off
#ICS correction=	On
#Dark correction=	Off
#Inst. Process=	Off
#Detector Gain=	Best Dynamic
#Detector ADC=	50 kHz HS
#Detector temperature (°C)=	-60.09
#Instrument=	LabRAM HR Evol
#Detector=	SIN-EM FIVIS
#Objective=	x100_VIS_LWD
#Grating=	1800 (450-850nm)
#ND Filter=	100%
#Laser=	532nm_Edge
#Hole=	100.021
#Temperature=	0
#Range=	Visible
#StageXY=	75x50mm Scan+
#StageZ=	Z motor
#X (µm)=	0
#Y (µm)=	0
#Z (µm)=	12.5
#Full time(mm:ss)=	3:23
#Project=	21_11_26
#Sample=	BU19(2)w
#Site=	
#Title=	BU19(2)w-A-FF2-FI01-V_1800 (450-850nm)_532nm_Edge_100%_x100_VIS_LWD_H100um_30sX2
#Remark=	
#Date=	26.11.2021 14:18
#Acquired=	26.11.2021 14:18:21
#Base:Fit=	16.12.2021 16:00:56
#Base:Fit=	16.12.2021 16:10:48
#Base:Sub=	16.12.2021 16:10:49
1202.72	-4.49313
1203	-0.980164
1203.28	7.81049
1203.56	0.343956
1203.84	-0.676079
1204.11	0.480751
1204.39	1.64307
1204.67	-0.377724
1204.95	-4.54476
1205.23	13.8289
1205.5	-6.51318
1205.78	7.52444
1206.06	7.58506
1206.34	-5.23492
1206.61	-1.95602
1206.89	5.60522
1207.17	8.87126
1207.45	-3.92612
1207.73	1.49932
1208	12.274
1208.28	2.71293
1208.56	8.13134
1208.84	1.76589
1209.11	2.89153
1209.39	-2.39959
1209.67	-0.193954
1209.95	-3.32853
1210.23	4.22052
1210.5	1.06538
1210.78	4.29893
1211.06	3.25765
1211.34	0.0876694
1211.61	5.45029
1211.89	9.74821
1212.17	-0.900459
1212.45	-0.880699
1212.72	-1.91778
1213	-2.95808
1213.28	-4.00063
1213.56	5.61396
1213.83	4.58323
1214.11	-3.90971
1214.39	5.71978
1214.67	-7.01072
1214.94	3.67667
1215.22	2.64889
1215.5	8.00392
1215.78	5.90351
1216.05	-2.58849
1216.33	-2.58242
1216.61	-4.71519
1216.89	-1.53825
1217.16	-1.55124
1217.44	-2.61974
1217.72	10.1227
1218	3.7399
1218.27	-5.82079
1218.55	-6.88576
1218.83	-5.82805
1219.1	2.66444
1219.38	5.85307
1219.66	-3.69485
1219.94	-2.63646
1220.21	2.65795
1220.49	-1.58153
1220.77	1.60563
1221.04	3.72473
1221.32	-6.88831
1221.6	-9.02451
1221.88	-6.92094
1222.15	-1.6504
1222.43	3.60563
1222.71	-4.91666
1222.98	8.78967
1223.26	-2.90482
1223.54	-4.01395
1223.81	-6.17672
1224.09	-1.9936
1224.37	-5.20836
1224.65	-6.30077
1224.92	1.05706
1225.2	2.08334
1225.48	-0.0478897
1225.76	-7.44413
1226.03	-1.11916
1226.31	-6.40698
1226.59	-6.43382
1226.86	-10.6864
1227.14	-12.838
1227.42	4.00952
1227.69	7.09576
1227.97	-9.89394
1228.25	5.82356
1228.52	7.84099
1228.8	5.60741
1229.08	13.9043
1229.35	-5.05001
1229.63	1.46729
1229.91	1.64528
1230.18	-5.86533
1230.46	-2.82709
1230.74	-5.00363
1231.01	-5.0305
1231.29	-6.17598
1231.57	0.959
1231.84	-10.6217
1232.12	-14.8671
1232.4	9.25706
1232.67	-1.30434
1232.95	1.80259
1233.23	-6.65112
1233.5	10.1034
1233.78	6.90444
1234.06	-1.53934
1234.33	6.82805
1234.61	6.79172
1234.89	1.50535
1235.16	0.422737
1235.44	0.382164
1235.71	2.44435
1235.99	-4.95264
1236.27	-0.789841
1236.54	-0.842735
1236.82	3.29838
1237.1	3.22987
1237.37	0.00191498
1237.65	2.01607
1237.93	13.4775
1238.2	4.98454
1238.48	9.08945
1238.76	-8.83844
1239.03	16.2504
1239.31	3.59134
1239.58	2.47193
1239.86	2.40403
1240.14	-7.09446
1240.41	1.22989
1240.69	7.46
1240.97	5.30759
1241.24	14.6882
1241.52	2.05343
1241.79	-4.30516
1242.07	1.90519
1242.35	11.2639
1242.62	5.96521
1242.9	3.81437
1243.18	6.9118
1243.45	6.86408
1243.73	7.84854
1244	5.6907
1244.28	7.73159
1244.56	8.71546
1244.83	9.69319
1245.11	5.42607
1245.39	14.7706
1245.66	14.6774
1245.94	14.5734
1246.21	15.5174
1246.49	17.5298
1246.76	15.362
1247.04	20.5312
1247.32	13.1366
1247.59	21.4345
1247.87	17.1805
1248.14	20.2414
1248.42	24.3148
1248.7	25.2703
1248.97	14.7396
1249.25	14.6806
1249.52	27.1753
1249.8	14.5493
1250.08	16.5708
1250.35	12.3221
1250.63	9.09454
1250.9	27.8168
1251.18	15.1791
1251.45	15.0893
1251.73	19.1811
1252.01	14.9149
1252.28	13.7823
1252.56	21.0041
1252.83	18.8262
1253.11	28.1279
1253.39	20.7309
1253.66	21.6956
1253.94	16.4123
1254.21	21.5831
1254.49	25.7155
1254.76	28.8091
1255.04	21.4451
1255.31	22.4228
1255.59	26.5434
1255.87	35.8754
1256.14	34.7582
1256.42	29.4775
1256.69	40.9098
1256.97	48.1765
1257.24	57.5191
1257.52	69.9793
1257.79	74.0663
1258.07	78.1621
1258.35	73.9062
1258.62	60.2531
1258.9	51.8182
1259.17	63.1976
1259.45	64.1725
1259.72	71.4343
1260	82.8798
1260.27	73.4933
1260.55	102.619
1260.82	104.594
1261.1	123.238
1261.37	154.416
1261.65	161.613
1261.92	189.755
1262.2	224.411
1262.48	255.1
1262.75	279.326
1263.02	274.458
1263.3	282.286
1263.58	273.705
1263.85	258.358
1264.13	208.437
1264.4	181.487
1264.68	152.281
1264.95	146.832
1265.23	118.491
1265.5	106.935
1265.78	81.7757
1266.05	84.8173
1266.33	57.5909
1266.6	72.1733
1266.88	61.6886
1267.15	60.6167
1267.43	58.5067
1267.7	58.4939
1267.98	46.9778
1268.25	44.8786
1268.53	53.2651
1268.8	56.409
1269.08	63.7178
1269.35	60.5474
1269.63	35.3664
1269.9	53.1148
1270.18	53.0257
1270.45	51.876
1270.73	43.413
1271	49.6042
1271.28	44.2918
1271.55	45.2757
1271.83	65.0839
1272.1	40.978
1272.38	57.7073
1272.65	44.0931
1272.93	56.6687
1273.2	47.2326
1273.47	61.8943
1273.75	56.6495
1274.03	55.5953
1274.3	49.2979
1274.57	68.1559
1274.85	54.4802
1275.12	64.9157
1275.4	69.0653
1275.67	67.9896
1275.95	74.2677
1276.22	64.8097
1276.5	85.7992
1276.77	71.0922
1277.05	89.9832
1277.32	86.8169
1277.6	100.477
1277.87	106.79
1278.14	116.257
1278.42	120.465
1278.69	148.853
1278.97	173.073
1279.24	183.597
1279.52	203.593
1279.79	255.082
1280.07	319.177
1280.34	400.072
1280.61	512.546
1280.89	666.118
1281.16	919.659
1281.44	1268.14
1281.71	1746.36
1281.99	2348.68
1282.26	3180.15
1282.53	3972.06
1282.81	4615.77
1283.08	5053.9
1283.36	4964.02
1283.63	4451.82
1283.91	3497.02
1284.18	2563.79
1284.45	1791.37
1284.73	1215.82
1285	837.744
1285.28	601.666
1285.55	428.568
1285.83	347.286
1286.1	275.672
1286.37	248.348
1286.65	184.079
1286.92	174.522
1287.2	150.276
1287.47	147.076
1287.75	114.38
1288.02	114.316
1288.29	111.111
1288.57	87.933
1288.84	95.2819
1289.12	87.9066
1289.39	93.1771
1289.66	78.4522
1289.94	81.6248
1290.21	83.7503
1290.49	57.4284
1290.76	54.2478
1291.03	64.7439
1291.31	46.8105
1291.58	64.6949
1291.86	48.8773
1292.13	56.2266
1292.4	55.1584
1292.68	51.9934
1292.95	53.0219
1293.22	39.3038
1293.5	46.6692
1293.77	39.3317
1294.05	43.5956
1294.32	38.376
1294.59	43.6536
1294.87	38.3698
1295.14	41.5117
1295.42	42.583
1295.69	34.1963
1295.96	42.7108
1296.24	36.472
1296.51	34.4104
1296.79	29.1327
1297.06	33.3571
1297.33	24.8796
1297.61	33.3038
1297.88	24.8169
1298.15	25.8374
1298.43	13.125
1298.7	40.5946
1298.97	21.5703
1299.25	25.7689
1299.52	24.6922
1299.79	32.0576
1300.07	28.8879
1300.34	25.7442
1300.62	20.4784
1300.89	25.7616
1301.16	21.5327
1301.44	20.4732
1301.71	26.8166
1301.98	17.3376
1302.25	27.9223
1302.53	6.81158
1302.8	15.2695
1303.08	20.5539
1303.35	19.4942
1303.62	19.4855
1303.9	6.79697
1304.17	8.91119
1304.44	19.4804
1304.72	11.0408
1304.99	5.76768
1305.26	9.98557
1305.54	9.97376
1305.81	15.2335
1306.08	2.55392
1306.35	12.0315
1306.63	18.3471
1306.9	7.80162
1307.18	13.0868
1307.45	11.0011
1307.72	0.470772
1308	1.53802
1308.27	2.6064
1308.54	10.011
1308.81	1.58169
1309.09	1.60382
1309.36	9.02264
1309.63	4.83611
1309.91	11.2018
1310.18	0.677917
1310.45	9.13635
1310.73	0.705887
1311	1.78111
1311.27	2.86144
1311.55	11.3314
1311.82	-3.41775
1312.09	5.05679
1312.37	2.98758
1312.64	10.4178
1312.91	3.05792
1313.18	5.18884
1313.46	2.02802
1313.73	11.5502
1314	2.06453
1314.28	6.30443
1314.55	10.5527
1314.82	3.19784
1315.09	-0.986382
1315.37	-0.944977
1315.64	9.65611
1315.91	10.7568
1316.18	5.52066
1316.46	-6.0724
1316.73	-0.767624
1317	3.48308
1317.28	-3.88103
1317.55	-8.07327
1317.82	-2.74539
1318.09	1.52314
1318.37	-2.66172
1318.64	2.65863
1318.91	1.63912
1319.18	3.78741
1319.46	-3.57531
1319.73	-4.60007
1320	-9.84937
1320.28	13.436
1320.55	2.91034
1320.82	-3.39637
1321.09	-6.54198
1321.37	1.92244
1321.64	7.20918
1321.91	-5.45219
1322.18	5.1218
1322.46	-2.25382
1322.73	-0.117516
1323	3.07297
1323.27	5.20782
1323.55	-2.15134
1323.82	3.1758
1324.09	-2.04805
1324.36	-2.00205
1324.64	1.2024
1324.91	-4.02328
1325.18	7.61768
1325.45	1.34417
1325.73	9.79631
1326	-6.016
1326.27	-16.5586
1326.54	3.42057
1326.81	-2.87641
1327.09	17.1526
1327.36	0.404945
1327.63	5.79047
1327.9	-4.65389
1328.18	4.91667
1328.45	-2.36889
1328.72	-0.167686
1328.99	0.973083
1329.27	10.5309
1329.54	5.29417
1329.81	1.1387
1330.08	-6.19773
1330.35	0.177788
1330.63	9.7113
1330.9	1.30776
1331.17	-1.82584
1331.44	1.36055
1331.71	2.42873
1331.99	2.43758
1332.26	-0.701668
1332.53	1.43117
1332.8	4.61284
1333.07	-4.83404
1333.35	2.54915
1333.62	3.62368
1333.89	7.85297
1334.16	-2.62527
1334.43	8.95882
1334.71	7.93948
1334.98	0.624603
1335.25	8.01004
1335.52	14.3455
1335.79	11.2376
1336.07	-0.258583
1336.34	3.98211
1336.61	-4.35981
1336.88	11.417
1337.15	4.12913
1337.43	8.37606
1337.7	11.5757
1337.97	4.29167
1338.24	-1.95605
1338.51	-8.19922
1338.78	3.37428
1339.06	14.9424
1339.33	-1.75735
1339.6	1.44817
1339.87	8.84972
1340.14	1.59383
1340.42	2.71221
1340.69	0.69062
1340.96	10.1888
1341.23	6.06699
1341.5	7.1792
1341.77	-3.22992
1342.04	6.25279
1342.32	-2.06882
1342.59	1.12102
1342.86	9.53584
1343.13	6.44001
1343.4	0.22139
1343.67	4.46973
1343.95	3.49329
1344.22	8.79492
1344.49	0.503891
1344.76	1.62383
1345.03	11.1005
1345.3	5.9286
1345.58	10.1611
1345.85	1.84058
1346.12	8.15858
1346.39	2.9749
1346.66	8.21828
1346.93	3.04166
1347.2	9.34662
1347.47	4.17442
1347.75	6.30782
1348.02	7.40831
1348.29	5.38783
1348.56	6.49924
1348.83	7.61237
1349.1	8.71645
1349.37	3.56677
1349.65	10.9173
1349.92	13.0595
1350.19	11.0367
1350.46	4.85117
1350.73	4.91262
1351	11.2116
1351.27	15.4261
1351.54	12.3684
1351.81	8.26166
1352.09	9.37556
1352.36	8.41654
1352.63	5.39234
1352.9	13.8199
1353.17	12.8978
1353.44	11.959
1353.71	7.9722
1353.98	18.5824
1354.25	18.5554
1354.53	18.4625
1354.8	17.3873
1355.07	14.3687
1355.34	15.503
1355.61	23.8587
1355.88	16.6522
1356.15	14.7002
1356.42	18.952
1356.69	17.9748
1356.96	20.1277
1357.24	13.9732
1357.51	21.3193
1357.78	25.545
1358.05	24.5755
1358.32	13.2243
1358.59	23.6711
1358.86	21.6639
1359.13	19.6536
1359.4	22.8319
1359.67	32.2381
1359.94	28.1633
1360.22	23.0371
1360.49	26.2007
1360.76	17.9674
1361.03	31.5035
1361.3	15.0103
1361.57	25.4581
1361.84	24.5089
1362.11	31.8437
1362.38	31.92
1362.65	31.9976
1362.92	36.2187
1363.19	42.5188
1363.46	47.7974
1363.73	51.022
1364	55.2765
1364.28	67.8193
1364.55	48.2292
1364.82	53.4922
1365.09	54.6058
1365.36	43.2821
1365.63	44.3804
1365.9	43.4063
1366.17	48.6432
1366.44	39.3942
1366.71	47.7314
1366.98	37.4444
1367.25	45.7631
1367.52	56.1718
1367.79	68.6537
1368.06	76.006
1368.33	116.428
1368.6	201.301
1368.87	282.05
1369.15	269.763
1369.41	179.938
1369.68	120.082
1369.95	80.8658
1370.23	74.7403
1370.5	43.8088
1370.77	59.3708
1371.04	47.0494
1371.31	49.1871
1371.58	56.4744
1371.85	58.5865
1372.12	56.5601
1372.39	65.8856
1372.66	58.7093
1372.93	68.0466
1373.2	67.0869
1373.47	55.8265
1373.74	64.1507
1374.01	58.0506
1374.28	62.2584
1374.55	75.7407
1374.82	75.829
1375.09	69.7344
1375.36	80.1139
1375.63	75.0695
1375.9	76.2206
1376.17	83.5278
1376.44	80.5472
1376.71	86.7831
1376.98	94.0479
1377.25	82.7626
1377.52	79.7038
1377.79	98.3498
1378.06	93.3524
1378.33	102.795
1378.6	106.082
1378.87	100.106
1379.14	117.767
1379.41	114.768
1379.68	113.811
1379.95	128.313
1380.22	143.826
1380.49	133.527
1380.76	144.769
1381.03	155.05
1381.3	177.685
1381.57	166.517
1381.84	193.288
1382.11	196.342
1382.38	233.285
1382.65	264.058
1382.92	279.43
1383.19	307.096
1383.46	348.121
1383.73	409.628
1384	482.443
1384.27	598.314
1384.54	714.294
1384.81	904.155
1385.08	1260.3
1385.34	1687.51
1385.61	2469.25
1385.88	3731.58
1386.15	5639.12
1386.42	8323.15
1386.69	10850.5
1386.96	11774
1387.23	10020.7
1387.5	7043.58
1387.77	4336.95
1388.04	2624.86
1388.31	1702.54
1388.58	1147.08
1388.85	823.201
1389.12	632.537
1389.39	508.861
1389.66	425.842
1389.93	343.854
1390.2	304.803
1390.46	278.958
1390.73	226.633
1391	219.548
1391.27	207.228
1391.54	176.56
1391.81	162.293
1392.08	144.923
1392.35	158.282
1392.62	137.85
1392.89	137.916
1393.16	126.728
1393.43	130.901
1393.7	104.371
1393.97	119.809
1394.23	104.545
1394.5	96.4489
1394.77	98.5878
1395.04	94.5908
1395.31	87.5507
1395.58	95.8711
1395.85	98.0428
1396.12	103.274
1396.39	83.9226
1396.66	93.2233
1396.93	87.1654
1397.2	71.8976
1397.46	84.2483
1397.73	77.1604
1398	82.3627
1398.27	79.3953
1398.54	74.3955
1398.81	79.6327
1399.08	75.6546
1399.35	61.4425
1399.62	74.8736
1399.89	79.0873
1400.16	80.2297
1400.42	78.2845
1400.69	80.4571
1400.96	73.4341
1401.23	74.5798
1401.5	81.8445
1401.77	89.1365
1402.04	87.1894
1402.31	83.252
1402.58	80.3736
1402.84	79.5497
1403.11	106.404
1403.38	88.0905
1403.65	107.725
1403.92	96.5364
1404.19	87.3641
1404.46	124.303
1404.73	117.254
1404.99	123.494
1405.26	135.882
1405.53	153.382
1405.8	168.823
1406.07	192.463
1406.34	214.048
1406.61	251.021
1406.87	293.119
1407.14	328.088
1407.41	393.824
1407.68	423.696
1407.95	496.62
1408.22	563.4
1408.49	565.591
1408.76	550.351
1409.02	470.512
1409.29	388.619
1409.56	321.065
1409.83	250.422
1410.1	195.147
1410.37	161.398
1410.63	144.016
1410.9	114.32
1411.17	110.261
1411.44	93.9212
1411.71	87.8445
1411.98	70.5062
1412.25	64.4547
1412.51	53.304
1412.78	59.5917
1413.05	64.9056
1413.32	63.1235
1413.59	40.707
1413.86	50.9813
1414.12	41.6835
1414.39	33.6051
1414.66	44.0415
1414.93	50.3573
1415.2	30.9425
1415.47	41.3118
1415.73	27.0381
1416	30.2198
1416.27	23.1401
1416.54	39.6778
1416.81	21.3021
1417.07	32.7087
1417.34	29.7386
1417.61	26.767
1417.88	29.9589
1418.15	34.1727
1418.42	21.9422
1418.68	31.2922
1418.95	33.4506
1419.22	34.5768
1419.49	28.5104
1419.76	23.4579
1420.02	28.6739
1420.29	31.8312
1420.56	22.665
1420.83	24.7949
1421.1	24.87
1421.36	31.1062
1421.63	30.1669
1421.9	31.2953
1422.17	18.0722
1422.44	29.4974
1422.7	29.6281
1422.97	22.5847
1423.24	34.0806
1423.51	35.3022
1423.77	30.0007
1424.04	28.8523
1424.31	33.0767
1424.58	31.0193
1424.85	29.0654
1425.11	32.2637
1425.38	27.3045
1425.65	24.3345
1425.92	23.3895
1426.19	18.3872
1426.45	15.397
1426.72	15.4744
1426.99	3.23987
1427.26	24.8396
1427.52	15.6804
1427.79	17.7862
1428.06	20.9211
1428.33	17.9271
1428.59	16.9895
1428.86	10.9395
1429.13	18.2046
1429.4	8.06353
1429.67	15.3342
1429.93	8.26893
1430.2	18.6231
1430.47	4.39141
1430.74	10.649
1431	8.71487
1431.27	12.9443
1431.54	17.1687
1431.81	18.3014
1432.07	10.1808
1432.34	13.3349
1432.61	7.2488
1432.87	13.4813
1433.14	7.39246
1433.41	9.50244
1433.68	11.6066
1433.95	0.395935
1434.21	4.56335
1434.48	7.71615
1434.75	10.9151
1435.01	13.0699
1435.28	15.2115
1435.55	12.2257
1435.82	14.3609
1436.08	-1.94965
1436.35	3.2564
1436.62	14.6085
1436.89	9.56593
1437.15	18.8643
1437.42	1.53037
1437.69	7.76096
1437.95	9.88688
1438.22	7.92068
1438.49	6.98693
1438.76	9.13309
1439.02	7.17703
1439.29	10.3388
1439.56	4.28101
1439.82	6.42686
1440.09	0.379845
1440.36	0.483994
1440.63	0.577072
1440.89	9.89497
1441.16	5.87846
1441.43	5.96656
1441.69	7.06995
1441.96	-0.0355835
1442.23	10.2936
1442.49	4.2404
1442.76	15.6056
1443.03	-0.705276
1443.3	6.54733
1443.56	-0.560173
1443.83	10.7897
1444.1	8.81345
1444.36	10.9425
1444.63	13.0799
1444.9	7.03168
1445.16	9.18253
1445.43	3.13177
1445.7	3.20713
1445.97	7.38448
1446.23	0.277885
1446.5	4.4557
1446.77	-4.70066
1447.03	0.502022
1447.3	9.80572
1447.57	4.75081
1447.83	-0.305538
1448.1	5.91772
1448.37	3.94558
1448.63	3.01161
1448.9	2.07998
1449.17	5.2393
1449.43	1.21357
1449.7	7.43949
1449.97	-2.7471
1450.23	4.49675
1450.5	0.46172
1450.77	2.58292
1451.03	7.77958
1451.3	-3.42371
1451.57	1.77119
1451.83	7.98873
1452.1	2.93473
1452.37	11.2015
1452.63	0.00399399
1452.9	2.12912
1453.17	1.18279
1453.43	-0.783722
1453.7	2.3714
1453.97	-4.72752
1454.23	-3.63289
1454.5	2.58583
1454.77	-1.43885
1455.03	2.73364
1455.3	0.755558
1455.56	-1.22504
1455.83	0.898453
1456.1	-6.19096
1456.36	5.16136
1456.63	1.13365
1456.9	4.27471
1457.16	2.28542
1457.43	-0.727303
1457.7	-1.68473
1457.96	1.45554
1458.23	4.59685
1458.49	-5.57588
1458.76	-1.40636
1459.03	-4.406
1459.29	1.81448
1459.56	8.03398
1459.82	-1.11619
1460.09	-5.14746
1460.36	-2.00861
1460.62	7.27581
1460.89	4.2661
1461.16	-2.84244
1461.42	6.43504
1461.69	1.37418
1461.95	6.55196
1462.22	-4.65259
1462.49	-1.52538
1462.75	-3.5172
1463.02	2.67582
1463.28	-4.43249
1463.55	8.91409
1463.82	-3.30362
1464.08	-6.30678
1464.35	-3.15532
1464.61	2.05353
1464.88	3.16553
1465.15	-0.834198
1465.41	1.23016
1465.68	0.158348
1465.94	-4.93093
1466.21	-0.790348
1466.48	2.35499
1466.74	1.39202
1467.01	-6.7343
1467.27	-2.59776
1467.54	3.59254
1467.8	0.590824
1468.07	-0.370625
1468.34	-0.310802
1468.6	-5.34991
1468.87	-1.20902
1469.13	-2.17067
1469.4	1.96457
1469.67	-4.10035
1469.93	0.0281334
1470.2	-2.98337
1470.46	8.27696
1470.73	3.2329
1470.99	-7.92222
1471.26	-9.9038
1471.53	-1.70148
1471.79	-8.78257
1472.06	2.47161
1472.32	0.489613
1472.59	2.5827
1472.85	0.603199
1473.12	-4.43121
1473.39	-8.44974
1473.65	0.762539
1473.92	-0.206615
1474.18	1.87915
1474.45	-4.17387
1474.71	-2.08167
1474.98	1.03368
1475.24	-7.04811
1475.51	4.20512
1475.78	-5.91866
1476.04	-5.8676
1476.31	2.32158
1476.57	0.33609
1476.84	-0.631237
1477.1	-4.65451
1477.37	1.4938
1477.63	-3.54162
1477.9	1.59562
1478.16	0.631325
1478.43	5.76252
1478.69	-0.296169
1478.96	-4.31721
1479.22	-0.206673
1479.49	-1.17978
1479.76	-7.23375
1480.02	2.96539
1480.29	-3.0886
1480.55	1.00438
1480.82	-5.05038
1481.08	5.13793
1481.35	-1.91879
1481.61	-0.86272
1481.88	0.208218
1482.14	1.2832
1482.41	-3.72977
1482.67	-2.65297
1482.94	2.48233
1483.2	-2.54424
1483.47	-1.47227
1483.73	-0.403496
1484	-3.40046
1484.26	-0.30727
1484.53	1.74833
1484.79	-9.3956
1485.06	1.74827
1485.32	0.703812
1485.59	-5.34606
1485.85	6.79071
1486.12	-0.104103
1486.38	-2.06726
1486.65	-6.05421
1486.91	-3.02386
1487.18	4.14339
1487.44	-6.94813
1487.71	-3.87761
1487.97	7.29732
1488.24	-7.85696
1488.5	-1.74401
1488.77	-4.74797
1489.03	-2.69136
1489.3	-6.70438
1489.56	-2.61802
1489.83	-3.58998
1490.09	5.55562
1490.36	-4.51743
1490.62	5.64212
1490.89	-2.41444
1491.15	2.67474
1491.42	-6.39405
1491.68	-6.35594
1491.95	-5.30446
1492.21	-3.24013
1492.48	0.848701
1492.74	0.888897
1493	-5.13835
1493.27	-2.06565
1493.53	-2.0243
1493.8	-2.99778
1494.06	1.0845
1494.33	3.14774
1494.59	-1.86227
1494.86	3.23767
1495.12	-6.83435
1495.39	-2.75918
1495.65	3.3279
1495.92	1.32568
1496.18	-4.71072
1496.45	6.4254
1496.71	0.398216
1496.97	6.48643
1497.24	2.47924
1497.5	4.53554
1497.77	-1.48258
1498.03	0.570568
1498.3	-1.4118
1498.56	0.644497
1498.82	-1.3355
1499.09	-8.36149
1499.35	0.761112
1499.62	-2.22673
1499.88	-2.1859
1500.15	6.94083
1500.41	-1.09764
1500.68	-4.09107
1500.94	0.990486
1501.2	4.05239
1501.47	-0.965919
1501.73	2.08614
1502	-1.91938
1502.26	-1.88644
1502.52	-1.85447
1502.79	8.26458
1503.05	-8.86444
1503.32	6.289
1503.58	1.27291
1503.85	6.33732
1504.11	1.32868
1504.37	6.40895
1504.64	-0.614658
1504.9	2.44336
1505.17	-6.60262
1505.43	-0.525719
1505.7	-4.53476
1505.96	-6.53324
1506.22	5.57129
1506.49	3.58353
1506.75	-1.4243
1507.02	6.66867
1507.28	2.67755
1507.54	3.71796
1507.81	-0.279934
1508.07	-4.28107
1508.34	-0.224316
1508.6	4.84031
1508.86	3.86339
1509.13	2.88701
1509.39	0.901703
1509.66	-2.09308
1509.92	0.95834
1510.18	4.01602
1510.45	-0.990902
1510.71	2.04994
1510.98	2.06698
1511.24	0.0670891
1511.5	2.09333
1511.77	2.09802
1512.03	1.08949
1512.29	6.11503
1512.56	6.11215
1512.82	2.09512
1513.08	1.10241
1513.35	-6.91675
1513.61	2.13531
1513.88	0.14875
1514.14	6.21146
1514.4	-4.78865
1514.67	-1.74508
1514.93	-1.72594
1515.2	1.29971
1515.46	7.33317
1515.72	2.32374
1515.99	-1.68248
1516.25	3.34141
1516.51	2.35049
1516.78	5.37715
1517.04	1.38506
1517.3	7.42074
1517.57	1.42665
1517.83	3.45581
1518.09	-1.53071
1518.36	6.52468
1518.62	0.532585
1518.88	6.577
1519.15	2.59041
1519.41	2.6172
1519.67	1.64022
1519.94	4.67451
1520.2	1.68467
1520.47	5.71373
1520.73	-1.29119
1520.99	2.74537
1521.26	0.765144
1521.52	3.8006
1521.78	1.81622
1522.05	-1.17589
1522.31	-3.16722
1522.57	0.859791
1522.84	2.87914
1523.1	2.8927
1523.36	-0.105598
1523.62	0.900032
1523.89	1.89969
1524.15	-1.10162
1524.41	1.91087
1524.68	1.91975
1524.94	-0.073349
1525.2	2.95519
1525.47	0.972912
1525.73	2.99564
1525.99	3.02152
1526.26	-1.95987
1526.52	3.08163
1526.78	3.11037
1527.05	5.13654
1527.31	-2.86697
1527.57	4.1581
1527.84	2.16659
1528.1	3.18026
1528.36	3.19183
1528.63	5.20495
1528.89	-0.796249
1529.15	3.22153
1529.41	-3.77744
1529.68	4.25013
1529.94	-1.74796
1530.2	2.26455
1530.47	2.27702
1530.73	5.3011
1530.99	-1.68414
1531.25	1.3462
1531.52	6.37889
1531.78	2.38601
1532.04	-0.609615
1532.31	-1.59654
1532.57	2.41784
1532.83	2.43773
1533.09	-3.54786
1533.36	8.51433
1533.62	0.522942
1533.88	0.543335
1534.15	3.56973
1534.41	7.59441
1534.67	-1.42452
1534.94	3.59887
1535.2	1.59911
1535.46	4.61473
1535.72	1.60767
1535.99	5.60096
1536.25	2.5892
1536.51	0.584911
1536.77	2.58033
1537.04	-1.43279
1537.3	-1.43874
1537.56	-0.434601
1537.82	0.564144
1538.09	-1.4253
1538.35	-1.42546
1538.61	8.56611
1538.87	3.57175
1539.14	-1.42159
1539.4	3.60122
1539.66	2.64235
1539.92	3.69314
1540.19	6.73552
1540.45	3.76362
1540.71	-0.212757
1540.97	-3.19776
1541.24	1.83073
1541.5	1.81694
1541.76	2.82514
1542.02	-3.19426
1542.29	-3.19831
1542.55	1.80552
1542.81	-2.20555
1543.07	1.79519
1543.34	2.79166
1543.6	2.78563
1543.86	3.77551
1544.12	3.76379
1544.39	-0.22686
1544.65	5.7841
1544.91	4.8027
1545.17	-4.17913
1545.43	0.842354
1545.7	-1.13251
1545.96	0.887856
1546.22	-0.100662
1546.48	-2.09219
1546.74	8.92914
1547.01	4.93109
1547.27	-2.06955
1547.53	4.95578
1547.79	6.97142
1548.06	-0.0490646
1548.32	0.930424
1548.58	-3.06992
1548.84	-2.06092
1549.1	-0.0379868
1549.37	-1.08211
1549.63	3.86847
1549.89	-1.13704
1550.15	-0.10413
1550.42	8.96439
1550.68	1.03988
1550.94	-5.92362
1551.2	-2.86069
1551.46	4.13792
1551.73	3.14304
1551.99	3.13546
1552.25	-1.8964
1552.51	5.15767
1552.77	7.19321
1553.03	0.15834
1553.3	4.16248
1553.56	4.12436
1553.82	-2.90393
1554.08	5.11916
1554.34	9.12159
1554.61	7.10137
1554.87	10.0906
1555.13	6.06316
1555.39	7.05966
1555.65	3.05082
1555.91	2.05061
1556.18	7.0647
1556.44	0.0544243
1556.7	3.05292
1556.96	-0.951576
1557.22	7.06681
1557.48	3.06435
1557.75	1.06286
1558.01	1.06091
1558.27	4.05674
1558.53	-1.96766
1558.79	2.02452
1559.06	-0.99522
1559.32	7.99289
1559.58	2.9768
1559.84	10.9642
1560.1	5.9547
1560.36	3.9474
1560.63	-0.0563469
1560.89	6.93508
1561.15	10.9286
1561.41	-4.06207
1561.67	-2.06035
1561.93	1.94661
1562.19	-0.0388489
1562.46	3.97654
1562.72	3.97627
1562.98	-1.02786
1563.24	4.9672
1563.5	3.9688
1563.76	-1.03771
1564.02	-1.04203
1564.29	-1.02539
1564.55	-1.00703
1564.81	0.999348
1565.07	11.0012
1565.33	-3.03811
1565.59	3.86287
1565.85	-1.25449
1566.11	4.64791
1566.38	2.88184
1566.64	-1.05425
1566.9	1.91593
1567.16	3.87569
1567.42	-1.07944
1567.68	-2.03719
1567.94	0.949627
1568.2	3.90872
1568.47	1.91325
1568.73	2.91791
1568.99	1.91893
1569.25	-1.0888
1569.51	9.88388
1569.77	-0.125492
1570.03	3.8689
1570.29	3.87006
1570.55	4.86736
1570.82	0.867043
1571.08	8.85765
1571.34	-2.14159
1571.6	4.84504
1571.86	0.835884
1572.12	3.81942
1572.38	-3.1786
1572.64	6.79899
1572.9	2.78912
1573.17	0.780041
1573.43	2.76493
1573.69	3.74971
1573.95	5.73345
1574.21	-2.25389
1574.47	3.73982
1574.73	0.752838
1574.99	0.760868
1575.25	-1.22826
1575.51	0.777534
1575.78	0.782368
1576.04	3.77813
1576.3	6.76706
1576.56	8.75949
1576.82	0.753998
1577.08	1.73103
1577.34	-6.28292
1577.6	5.67274
1577.86	3.65168
1578.12	-1.35887
1578.38	0.614815
1578.64	2.59342
1578.9	-5.391
1579.17	3.57517
1579.43	-1.41565
1579.69	-1.42101
1579.95	1.56699
1580.21	5.55738
1580.47	3.56119
1580.73	0.564529
1580.99	-0.440948
1581.25	0.543964
1581.51	-3.45832
1581.77	-2.47428
1582.03	3.48878
1582.29	1.47771
1582.55	-3.51421
1582.81	-0.535477
1583.07	2.44233
1583.33	2.43253
1583.59	-0.563995
1583.85	-4.55622
1584.11	1.40781
1584.38	1.40084
1584.64	0.402603
1584.9	0.399185
1585.16	3.38271
1585.42	7.35958
1585.68	1.37279
1585.94	3.35635
1586.2	0.355968
1586.46	-1.65499
1586.72	3.30251
1586.98	7.26633
1587.24	1.28005
1587.5	1.26686
1587.76	4.23965
1588.02	4.22933
1588.28	5.21709
1588.54	0.239124
1588.8	3.22283
1589.06	1.23278
1589.32	1.23165
1589.58	-2.7513
1589.84	10.1883
1590.1	-2.76061
1590.36	6.19201
1590.62	11.1673
1590.88	6.18763
1591.14	1.2055
1591.4	2.19175
1591.66	-4.7879
1591.92	7.15047
1592.18	-1.82529
1592.44	1.14161
1592.7	-1.86922
1592.96	0.100475
1593.22	-3.89515
1593.48	1.0508
1593.74	4.00316
1594	-1.99056
1594.26	-2.01209
1594.52	-6.00044
1594.78	4.9167
1595.04	5.90831
1595.3	8.89219
1595.56	-3.03248
1595.82	9.87683
1596.08	-9.0319
1596.34	-1.09583
1596.6	10.8139
1596.86	0.873413
1597.12	-5.09298
1597.38	3.84147
1597.64	-0.136108
1597.9	-2.12749
1598.16	-4.12466
1598.42	4.80217
1598.68	4.78287
1598.94	-0.206444
1599.2	-1.22104
1599.46	1.73776
1599.72	-2.25
1599.98	2.69317
1600.24	-8.23757
1600.5	-0.319302
1600.76	-4.30533
1601.02	1.62196
1601.28	0.604668
1601.54	7.51312
1601.8	2.53191
1602.06	0.527214
1602.32	-2.46331
1602.58	-1.49262
1602.84	-2.50272
1603.1	4.40108
1603.36	-1.55587
1603.62	-1.57488
1603.88	-1.59088
1604.14	-0.615925
1604.4	0.362053
1604.66	2.33089
1604.92	0.345448
1605.17	-4.60736
1605.43	1.31689
1605.69	-2.646
1605.95	1.30418
1606.21	2.28991
1606.47	-3.64737
1606.73	3.27437
1606.99	1.29186
1607.25	4.25096
1607.51	12.0086
1607.77	-4.45248
1608.03	1.35173
1608.29	-5.27277
1608.55	-0.559093
1608.81	-0.506424
1609.07	-2.42329
1609.32	-1.65524
1609.58	1.94646
1609.84	2.54163
1610.1	-0.633373
1610.36	-2.32615
1610.62	8.8034
1610.88	6.19046
1611.14	1.00899
1611.4	-0.484989
1611.66	0.664169
1611.92	-2.88895
1612.18	-0.197815
1612.44	0.918091
1612.69	-0.11058
1612.95	-2.89635
1613.21	8.26756
1613.47	3.12407
1613.73	2.85675
1613.99	1.9133
1614.25	1.17573
1614.51	-0.918877
1614.77	2.49844
1615.03	5.46372
1615.29	0.514725
1615.54	4.02294
1615.8	-2.68456
1616.06	0.458588
1616.32	-0.515129
1616.58	2.49492
1616.84	3.11887
1617.1	1.77202
1617.36	-2.59939
1617.62	-0.422375
1617.88	-2.08714
1618.13	1.85844
1618.39	-0.136219
1618.65	2.64742
1618.91	0.991982
1619.17	2.49207
1619.43	1.9075
1619.69	1.50903
1619.95	0.289104
1620.2	2.58847
1620.46	4.97972
1620.72	0.473988
1620.98	1.77726
1621.24	0.398369
1621.5	1.9212
1621.76	-0.69141
1622.02	-0.299572
1622.27	2.91074
1622.53	4.56946
1622.79	0.543007
1623.05	-0.783493
1623.31	1.17664
1623.57	0.389404
1623.83	-0.297707
1624.09	0.178288
1624.34	2.46573
1624.6	0.415691
1624.86	0.780983
1625.12	0.602551
1625.38	-0.432438
1625.64	1.16434
1625.9	2.01846
1626.15	0.658344
1626.41	-2.52319
1626.67	-3.48304
1626.93	-1.60415
1627.19	0.905582
1627.45	-0.919334
1627.7	0.698685
1627.96	2.27707
1628.22	4.01704
1628.48	1.36221
1628.74	4.1049
1629	1.75289
1629.26	2.81244
1629.51	-0.603462
1629.77	-0.47694
1630.03	2.26483
1630.29	2.56276
1630.55	0.755497
1630.81	-0.202866
1631.06	1.05251
1631.32	-2.46119
1631.53	-0.89513
1631.79	2.05782
1632.05	1.07214
1632.31	-1.88565
1632.57	3.03011
1632.84	3.03452
1633.1	0.0915108
1633.36	2.03724
1633.62	1.01753
1633.88	-0.967682
1634.14	1.98576
1634.4	-0.972542
1634.66	-0.979412
1634.93	9.85524
1635.19	-2.96866
1635.45	9.83393
1635.71	-2.99132
1635.97	2.90903
1636.23	-1.0468
1636.49	2.87968
1636.75	1.87928
1637.02	1.86366
1637.28	0.861923
1637.54	0.844276
1637.8	1.81548
1638.06	0.820274
1638.32	0.80703
1638.58	-4.12884
1638.84	-0.203629
1639.1	-0.211956
1639.37	1.74804
1639.63	0.754395
1639.89	4.68264
1640.15	-0.2486
1640.41	0.725277
1640.67	-4.20368
1640.93	2.6874
1641.19	3.67015
1641.46	-0.27536
1641.72	-1.27186
1641.98	1.6682
1642.24	2.6407
1642.5	2.62955
1642.76	-1.31867
1643.02	3.59257
1643.28	-2.32352
1643.54	5.54134
1643.8	5.53159
1644.06	1.58215
1644.33	-2.36791
1644.59	0.568588
1644.85	-1.4136
1645.11	-0.439606
1645.37	-2.41195
1645.63	-1.43023
1645.89	-4.3872
1646.15	0.525692
1646.41	-1.45517
1646.67	0.499016
1646.93	1.46972
1647.19	2.44224
1647.46	-0.521736
1647.72	0.448704
1647.98	-3.49726
1648.24	0.427483
1648.5	-1.54546
1648.76	3.37278
1649.02	7.31005
1649.28	-2.51368
1649.54	3.39456
1649.8	-0.556385
1650.06	-0.569332
1650.32	5.32861
1650.58	1.39812
1650.85	-3.52209
1651.11	0.418636
1651.37	1.40551
1651.63	0.418941
1651.89	4.35589
1652.15	-2.54941
1652.41	-1.57125
1652.67	-7.4898
1652.93	0.38213
1653.19	-1.60151
1653.45	3.31494
1653.71	-0.633114
1653.97	2.31774
1654.23	-1.62604
1654.49	0.340748
1654.75	-0.64994
1655.01	-3.61055
1655.27	-3.61202
1655.53	-0.652504
1655.8	-2.61836
1656.06	-3.59587
1656.32	-1.6186
1656.57	1.34267
1656.84	-1.62105
1657.1	0.34856
1657.36	-0.646603
1657.62	-3.61845
1657.88	1.30464
1658.14	-1.66575
1658.4	1.28459
1658.66	2.25946
1658.92	-1.70023
1659.18	-3.68623
1659.44	2.21832
1659.7	-0.753716
1659.96	-1.75301
1660.22	-0.783535
1660.48	-2.75769
1660.74	1.18564
1661	1.18697
1661.26	3.16208
1661.52	2.17891
1661.78	2.18305
1662.04	-1.76603
1662.3	4.15274
1662.56	2.12775
1662.82	-3.71177
1663.08	2.26126
1663.34	0.251263
1663.6	3.20476
1663.86	2.19807
1664.12	0.118217
1664.38	3.1237
1664.64	-3.78036
1664.9	-1.80746
1665.16	1.17327
1665.42	-0.798611
1665.68	-3.81544
1665.94	-4.84771
1666.2	1.18807
1666.46	-0.784554
1666.72	1.18265
1666.98	1.10927
1667.24	1.93734
1667.5	-3.84531
1667.76	4.0358
1668.02	1.06161
1668.28	0.0647087
1668.54	1.03819
1668.8	-1.92548
1669.06	-2.897
1669.32	2.06129
1669.58	-3.86457
1669.84	5.02119
1670.1	-1.89624
1670.36	-2.89349
1670.62	-0.922913
1670.88	3.04935
1671.14	-1.8812
1671.4	-6.83284
1671.66	0.077961
1671.92	1.05961
1672.18	-3.88476
1672.44	2.04538
1672.69	-3.88853
1672.95	-0.927647
1673.21	0.0562439
1673.47	-0.93531
1673.73	3.01671
1673.99	-4.8934
1674.25	3.01701
1674.51	-5.88049
1674.77	1.04376
1675.03	1.04596
1675.29	0.0617638
1675.55	1.05459
1675.81	0.0652733
1676.07	4.02055
1676.33	0.0573235
1676.59	-5.88288
1676.85	4.01261
1677.11	-1.92822
1677.37	-5.89162
1677.63	-3.91833
1677.89	-3.92599
1678.14	-0.967464
1678.4	-0.98011
1678.66	-0.0047493
1678.92	-5.95014
1679.18	4.91668
1679.44	-0.0362434
1679.7	-3.00926
1679.96	-0.0518913
1680.22	-0.0600853
1680.48	4.87434
1680.74	-2.05144
1681	-4.03542
1681.26	-2.06651
1681.52	-1.08392
1681.78	-0.0999298
1682.03	2.86032
1682.29	-2.08228
1682.55	0.878922
1682.81	-3.07473
1683.07	-0.115761
1683.33	-0.119957
1683.59	4.81601
1683.85	3.82531
1684.11	-2.10591
1684.37	-1.12372
1684.63	-3.10876
1684.89	0.835094
1685.14	-3.11999
1685.4	-1.14906
1685.66	-0.164967
1685.92	-2.14254
1686.18	-2.14461
1686.44	-0.170944
1686.7	-1.15693
1686.96	-6.0886
1687.22	-2.13502
1687.48	-1.14829
1687.73	0.82169
1687.99	-3.13696
1688.25	-4.13175
1688.51	-5.12541
1688.77	-0.194984
1689.03	-5.14023
1689.29	0.771149
1689.55	-3.18649
1689.81	-5.1696
1690.06	-1.23362
1690.32	4.67201
1690.58	-5.19542
1690.84	-4.20081
1691.1	-4.19681
1691.36	-0.247723
1691.62	0.739956
1691.88	-4.19068
1692.13	3.70732
1692.39	-2.21572
1692.65	-0.245834
1692.91	-2.22765
1693.17	-0.264515
1693.43	-3.23557
1693.69	-3.24879
1693.95	-2.2775
1694.2	-0.316647
1694.46	-3.2832
1694.72	-3.29355
1694.98	-4.28612
1695.24	-1.33267
1695.5	1.62437
1695.76	-1.32922
1696.01	0.643013
1696.27	-1.32502
1696.53	-6.24647
1696.79	-1.31579
1697.05	1.63963
1697.31	-2.30732
1697.57	-2.31639
1697.82	-0.358654
1698.08	0.612988
1698.34	-5.30476
1698.6	1.57775
1698.86	1.5692
1699.12	-2.37407
1699.38	-8.28154
1699.63	-6.31499
1699.89	-7.297
1700.15	-3.36087
1700.41	-2.37632
1700.67	-5.33637
1700.92	3.51588
1701.18	4.49726
1701.44	-5.34286
1701.7	3.50596
1701.96	-2.40313
1702.22	-0.445553
1702.47	-0.453918
1702.73	-0.463165
1702.99	-1.45436
1703.25	-1.45684
1703.51	-5.3884
1703.77	-4.40831
1704.02	0.500214
1704.28	0.497684
1704.54	-7.35761
1704.8	-0.473309
1705.06	-2.4367
1705.32	1.49214
1705.57	-4.40583
1705.83	-5.38785
1706.09	-2.43951
1706.35	0.501328
1706.61	-1.47268
1706.86	0.481144
1707.12	-3.45708
1707.38	4.38465
1707.64	-1.51339
1707.9	-1.52488
1708.16	-3.49997
1708.41	-6.45417
1708.67	-2.54597
1708.93	-6.48024
1709.19	0.363197
1709.44	-1.60501
1709.7	2.30532
1709.96	0.345043
1710.22	6.21907
1710.48	-4.54718
1710.73	-1.60762
1710.99	-0.62344
1711.25	-1.59433
1711.51	1.34933
1711.77	-2.56254
1712.02	3.31916
1712.28	1.3624
1712.54	3.31729
1712.8	-1.59102
1713.06	-3.56577
1713.31	1.30833
1713.57	-0.665356
1713.83	-1.65819
1714.09	0.280537
1714.34	5.15838
1714.6	-0.707695
1714.86	2.22005
1715.12	-4.61798
1715.38	0.266621
1715.63	0.276707
1715.89	0.289185
1716.15	-3.61751
1716.41	-1.66515
1716.66	-0.69289
1716.92	1.25249
1717.18	1.24078
1717.44	1.22576
1717.69	1.20732
1717.95	0.210186
1718.21	2.14093
1718.47	5.04713
1718.72	-1.78593
1718.98	-2.76752
1719.24	-0.823425
1719.5	0.151646
1719.75	-1.79373
1720.01	-1.7939
1720.27	4.05377
1720.53	0.163692
1720.78	1.13514
1721.04	1.1289
1721.3	3.06458
1721.56	-4.72709
1721.81	3.04897
1722.07	-2.79502
1722.33	-0.858841
1722.59	-6.70031
1722.84	0.0946045
1723.1	-0.885456
1723.36	1.0501
1723.62	-0.897724
1723.87	-0.900257
1724.13	-3.81099
1724.39	1.04312
1724.64	2.98543
1724.9	0.0679779
1725.16	1.99951
1725.42	0.0429001
1725.67	4.87797
1725.93	0.0142479
1726.19	0.974915
1726.45	3.87942
1726.7	1.94818
1726.96	-3.86663
1727.22	-5.80766
1727.47	1.92931
1727.73	-0.00568008
1727.99	2.91536
1728.24	0.00938797
1728.5	3.87901
1728.76	1.92669
1729.02	3.7956
1729.27	1.78949
1729.53	-1.12915
1729.79	1.79689
1730.05	-0.105545
1730.3	0.882759
1730.56	-1.07436
1730.82	0.847382
1731.07	-2.04943
1731.33	9.60205
1731.59	2.84455
1731.84	-3.91603
1732.1	-0.047451
1732.36	0.919937
1732.61	-1.01354
1732.87	6.71482
1733.13	-1.98392
1733.39	-4.8872
1733.64	1.86261
1733.9	-0.083271
1734.16	4.72471
1734.41	-1.07392
1734.67	0.843948
1734.93	-3.02294
1735.18	-3.99681
1735.44	4.66247
1735.7	0.80011
1735.95	-1.13128
1736.21	-0.171642
1736.47	1.7532
1736.72	3.67716
1736.98	1.75005
1737.24	0.785507
1737.49	2.70676
1737.75	0.780537
1738.01	3.66402
1738.26	4.62103
1738.52	4.61437
1738.78	1.72425
1739.03	1.71835
1739.29	6.5148
1739.55	3.62226
1739.8	2.64749
1740.06	1.66981
1740.32	5.49051
1740.57	-1.23724
1740.83	-0.288574
1741.09	-0.295528
1741.34	5.44738
1741.6	5.44029
1741.86	-0.312271
1742.11	4.4725
1742.37	1.59926
1742.63	2.55852
1742.88	0.64452
1743.14	0.644264
1743.4	2.56037
1743.65	-2.22206
1743.91	-1.26469
1744.16	1.60129
1744.42	3.51106
1744.68	0.638615
1744.93	4.46604
1745.19	-0.311729
1745.45	1.60699
1745.7	2.56839
1745.96	-3.16809
1746.22	0.656677
1746.47	2.56435
1746.73	7.33593
1746.98	4.45766
1747.24	2.53988
1747.5	4.44093
1747.75	-2.25023
1748.01	3.47237
1748.27	2.51705
1748.52	1.56639
1748.78	2.5267
1749.03	-2.23924
1749.29	3.49701
1749.55	3.50796
1749.8	1.6115
1750.06	3.53651
1750.32	-0.268177
1750.57	5.48149
1750.83	7.40954
1751.08	-3.09544
1751.34	-2.12917
1751.6	1.70146
1751.85	-1.16726
1752.11	0.736156
1752.36	8.36954
1752.62	3.58651
1752.88	4.53588
1753.13	1.66542
1753.39	2.61435
1753.64	-0.252651
1753.9	2.60716
1754.15	-0.257458
1754.41	-1.21619
1754.67	2.59327
1754.92	-0.269241
1755.18	4.49604
1755.43	0.682838
1755.69	1.6353
1755.95	4.49123
1756.2	-0.277767
1756.46	4.47852
1756.71	1.61357
1756.97	3.50713
1757.23	5.39962
1757.48	-0.317959
1757.74	0.63308
1757.99	4.43704
1758.25	4.44584
1758.5	1.61235
1758.76	3.52549
1759.02	-2.17699
1759.27	11.151
1759.53	9.25422
1759.78	4.50459
1760.04	6.41258
1760.3	9.26885
1760.55	5.46377
1760.81	-0.243889
1761.06	3.56142
1761.32	5.46116
1761.57	7.35812
1761.83	5.45261
1762.08	0.698566
1762.34	4.50288
1762.6	3.55598
1762.85	1.66883
1763.11	-0.221706
1763.36	4.53919
1763.62	4.54266
1763.87	10.2551
1764.13	0.755863
1764.38	8.37464
1764.64	8.39185
1764.89	6.51513
1765.15	13.1914
1765.4	0.830971
1765.66	3.69711
1765.92	6.56236
1766.17	4.66593
1766.43	7.52808
1766.68	2.77185
1766.94	0.869724
1767.19	9.43929
1767.45	-0.0747147
1767.7	7.54169
1767.96	11.3467
1768.21	5.63443
1768.47	7.53699
1768.73	-1.97542
1768.98	6.58863
1769.24	5.62152
1769.49	-0.103916
1769.75	8.42666
1770	9.36298
1770.26	4.62253
1770.51	7.48991
1770.77	8.45935
1771.02	7.5161
1771.28	2.77512
1771.53	10.3975
1771.79	4.71941
1772.04	11.388
1772.3	8.54418
1772.55	10.4614
1772.81	4.77112
1773.06	8.5907
1773.32	4.79699
1773.57	2.90548
1773.83	9.57906
1774.08	8.63832
1774.34	10.5525
1774.59	1.04136
1774.85	10.5702
1775.1	8.67967
1775.36	8.68986
1775.61	10.6106
1775.87	6.83078
1776.12	7.80368
1776.38	4.00331
1776.63	4.01104
1776.89	5.92104
1777.14	6.87335
1777.4	8.7759
1777.65	4.964
1777.91	1.14955
1778.16	0.19416
1778.42	4.95326
1778.67	5.90197
1778.93	1.13636
1779.18	4.93662
1779.44	9.68556
1779.69	6.82794
1779.95	3.97873
1780.2	3.999
1780.46	6.86346
1780.71	5.92129
1780.97	6.8835
1781.22	-0.72118
1781.47	4.99743
1781.73	5.95744
1781.98	6.92
1782.24	3.124
1782.49	5.04254
1782.75	1.24973
1783	6.0268
1783.26	1.27402
1783.51	5.09708
1783.77	0.34359
1784.02	1.30863
1784.28	0.367764
1784.53	1.33551
1784.79	4.21497
1785.04	1.36639
1785.29	9.00889
1785.55	2.33564
1785.8	1.38456
1786.06	1.38513
1786.31	7.10889
1786.57	0.438034
1786.82	-5.27635
1787.08	0.460659
1787.33	1.43056
1787.58	5.26778
1787.84	3.38283
1788.09	2.46276
1788.35	3.45588
1788.6	2.53627
1788.86	2.56253
1789.11	3.53386
1789.37	1.63577
1789.62	2.61729
1789.87	3.59341
1790.13	0.730103
1790.38	6.49287
1790.64	0.753269
1790.89	6.5112
1791.15	2.67955
1791.4	2.67385
1791.65	-4.05567
1791.91	-4.05402
1792.16	-1.1799
1792.42	-0.216373
1792.67	-0.20916
1792.93	2.67201
1793.18	2.68361
1793.43	6.52502
1793.69	-2.09063
1793.94	2.70526
1794.2	4.63331
1794.45	-3.02524
1794.7	-2.06267
1794.96	1.76798
1795.21	4.66178
1795.47	4.70655
1795.72	0.899601
1795.97	0.917057
1796.23	-1.95037
1796.48	-1.93722
1796.74	4.79912
1796.99	1.93253
1797.25	1.94736
1797.5	-0.921509
1797.75	1.01311
1798.01	3.90825
1798.26	-1.84951
1798.51	3.92854
1798.77	2.97498
1799.02	4.90346
1799.28	-3.74815
1799.53	-2.78647
1799.78	-1.82713
1800.04	1.05226
1800.29	2.00943
1800.55	4.88964
1800.8	-0.87558
1801.05	1.0463
1801.31	2.00874
1801.56	3.93293
1801.81	5.85867
1802.07	2.02309
1802.32	0.109833
1802.58	3.00113
1802.83	-1.79193
1803.08	1.10316
1803.34	-1.76645
1803.59	-1.75228
1803.84	4.99128
1804.1	0.19212
1804.35	5.00795
1804.61	-1.71407
1804.86	6.95738
1805.11	2.16051
1805.37	0.250832
1805.62	-3.58401
1805.87	1.24563
1806.13	4.14981
1806.38	3.19982
1806.64	1.28501
1806.89	5.15044
1807.14	3.23183
1807.4	5.16544
1807.65	-3.50391
1807.9	2.28334
1808.16	2.28819
1808.41	4.22094
1808.66	-5.4123
1808.92	1.34048
1809.17	2.31035
1809.42	-0.575546
1809.68	0.394192
1809.93	-1.52783
1810.18	6.19106
1810.44	3.30448
1810.69	-7.2968
1810.94	2.34656
1811.2	0.419991
1811.45	-7.28928
1811.7	0.426239
1811.96	-6.31876
1812.21	2.36206
1812.46	0.440098
1812.72	1.41324
1812.97	5.28122
1813.22	-0.493034
1813.48	0.48204
1813.73	1.45338
1813.98	-3.3606
1814.24	1.47817
1814.49	3.42537
1814.74	-2.35108
1815	3.46286
1815.25	1.54374
1815.5	1.55484
1815.76	-4.23607
1816.01	-1.33087
1816.26	0.607822
1816.52	0.613808
1816.77	2.55379
1817.02	5.46093
1817.27	0.628025
1817.53	-2.27486
1817.78	2.53867
1818.03	4.45735
1818.29	10.2581
1818.54	-1.3204
1818.79	0.627445
1819.05	4.50375
1819.3	2.57171
1819.55	-0.320839
1819.8	2.58753
1820.06	2.5965
1820.31	-1.26303
1820.56	2.61289
1820.82	1.65556
1821.07	-0.270416
1821.32	3.60592
1821.58	3.61574
1821.83	-1.21105
1822.08	3.63678
1822.33	-0.225689
1822.59	-2.15435
1822.84	-1.18048
1823.09	-3.11115
1823.34	4.63845
1823.6	-4.07228
1823.85	5.60686
1824.1	0.765007
1824.36	0.766537
1824.61	-8.90656
1824.86	-1.15628
1825.11	1.75467
1825.37	0.793819
1825.62	3.7065
1825.87	1.77592
1826.12	-1.12592
1826.38	-0.155144
1826.63	-0.151745
1826.88	4.6945
1827.14	0.824074
1827.39	5.67241
1827.64	1.80501
1827.89	-0.124912
1828.15	0.850872
1828.4	-1.08435
1828.65	2.79163
1828.9	3.75795
1829.16	4.72183
1829.41	-2.06059
1829.66	0.845505
1829.91	-0.122635
1830.17	0.845306
1830.42	4.71524
1830.67	7.61627
1830.92	-2.06846
1831.18	9.55121
1831.43	-4.96418
1831.68	-0.114876
1831.93	-0.106644
1832.19	3.77559
1832.44	0.877476
1832.69	4.76153
1832.94	-1.04111
1833.2	0.905567
1833.45	5.75463
1833.7	7.69618
1833.95	0.917114
1834.2	1.89043
1834.46	-1.01324
1834.71	1.88472
1834.96	1.86138
1835.21	0.871254
1835.47	0.85141
1835.72	5.67691
1835.97	-0.139282
1836.22	3.73064
1836.48	-1.11454
1836.73	2.95071
1836.98	1.97506
1837.23	-0.996128
1837.48	6.73694
1837.74	-0.0778122
1837.99	0.862968
1838.24	6.61815
1838.49	3.68871
1838.74	-1.14687
1839	7.63837
1839.25	-0.0696335
1839.5	0.917175
1839.75	-1.0131
1840	3.8395
1840.26	-2.93271
1840.51	-2.97077
1840.76	2.80722
1841.01	0.845013
1841.27	-1.11095
1841.52	-3.06357
1841.77	-3.08166
1842.02	3.66012
1842.27	4.60801
1842.53	3.62698
1842.78	-5.06858
1843.03	1.69143
1843.28	5.54547
1843.53	1.69332
1843.78	-1.20071
1844.04	-3.12941
1844.29	0.724689
1844.54	-2.16869
1844.79	-7.95075
1845.04	1.69711
1845.3	-2.16837
1845.55	2.65644
1845.8	-6.02392
1846.05	-1.1825
1846.3	0.767944
1846.55	2.71796
1846.81	3.71859
1847.06	-0.172333
1847.31	-1.20161
1847.56	2.57565
1847.81	3.52248
1848.07	-2.25213
1848.32	-0.304115
1848.57	2.60756
1848.82	-0.306309
1849.07	-5.13246
1849.32	4.49709
1849.57	0.636559
1849.83	2.54794
1850.08	3.49479
1850.33	-0.367008
1850.58	4.423
1850.83	0.563438
1851.09	-3.29247
1851.34	1.50157
1851.59	0.531822
1851.84	-4.27719
1852.09	-1.40099
1852.34	-2.36379
1852.59	1.47623
1852.84	2.43605
1853.1	0.514904
1853.35	3.39363
1853.6	1.4696
1853.85	-4.29646
1854.1	-2.38547
1854.35	3.3594
1854.6	0.46497
1854.86	2.36917
1855.11	3.31977
1855.36	0.435398
1855.61	-2.45412
1855.86	-1.51097
1856.11	-1.52012
1856.36	0.390709
1856.61	-6.31736
1856.87	0.386345
1857.12	-0.572796
1857.37	0.381927
1857.62	-6.32703
1857.87	5.15814
1858.12	1.32096
1858.37	-2.51678
1858.63	3.21608
1858.88	-1.58075
1859.13	0.321144
1859.38	-0.647762
1859.63	-2.57297
1859.88	-0.669796
1860.13	-7.3644
1860.38	-1.62948
1860.63	-1.62822
1860.89	-4.49024
1861.14	3.16693
1861.39	1.25943
1861.64	1.26667
1861.89	-1.59822
1862.14	1.27346
1862.39	2.22635
1862.64	3.1743
1862.9	0.2924
1863.15	-4.502
1863.4	4.09171
1863.65	-1.65698
1863.9	-0.71254
1864.15	-1.67863
1864.4	-1.68855
1864.65	-0.742973
1864.9	-4.57298
1865.15	1.14547
1865.4	3.04072
1865.66	-4.61017
1865.91	-2.71793
1866.16	2.98529
1866.41	0.103268
1866.66	1.98718
1866.91	0.0603294
1867.16	-3.76894
1867.41	-2.83666
1867.66	3.80373
1867.91	-0.967949
1868.16	3.77603
1868.41	1.86671
1868.67	1.86106
1868.92	3.76077
1869.17	1.85953
1869.42	-5.74897
1869.67	0.901051
1869.92	-2.90678
1870.17	-3.86235
1870.42	-0.0650749
1870.67	-1.02041
1870.92	-1.02484
1871.17	1.8226
1871.42	2.76957
1871.67	-2.93854
1871.92	-0.0954819
1872.17	3.69417
1872.42	3.68544
1872.68	-1.07152
1872.93	-7.73025
1873.18	1.75392
1873.43	1.74455
1873.68	1.73947
1873.93	-4.91193
1874.18	-1.12424
1874.43	2.66006
1874.68	-3.04602
1874.93	-4.00816
1875.18	-0.228989
1875.43	-2.14051
1875.68	-0.260441
1875.93	4.45705
1876.18	0.638744
1876.43	-0.328041
1876.68	1.54728
1876.93	-3.19733
1877.18	2.46839
1877.43	-4.17659
1877.68	4.29818
1877.93	0.462955
1878.18	1.44152
1878.44	-2.18275
1878.69	-2.24674
1878.93	-2.26968
1879.19	-3.22484
1879.44	0.599728
1879.69	-0.329948
1879.94	-2.24161
1880.19	-0.364765
1880.44	-1.31749
1880.69	0.569324
1880.94	-4.15879
1881.19	-2.27834
1881.44	3.39595
1881.69	-2.30608
1881.94	-7.06058
1882.19	-3.3023
1882.44	-3.32886
1882.69	0.420006
1882.94	-1.50335
1883.19	2.25367
1883.44	-4.38411
1883.69	5.37529
1883.94	-1.46374
1884.19	-1.58315
1884.44	-2.52623
1884.69	4.09646
1884.94	1.23825
1885.19	2.19464
1885.44	-1.55823
1885.69	-3.44313
1885.94	2.21986
1886.19	4.12739
1886.44	-2.47541
1886.69	-6.25084
1886.94	0.351559
1887.19	0.327869
1887.44	5.03209
1887.69	-2.53261
1887.94	-2.54763
1888.19	4.03848
1888.44	-4.46548
1888.69	3.05342
1888.94	1.14764
1889.19	-6.4064
1889.44	6.75831
1889.69	-3.61024
1889.94	0.149033
1890.19	-1.74038
1890.44	2.02467
1890.69	-0.793907
1890.94	-4.5555
1891.19	2.97788
1891.43	1.0876
1891.68	0.13678
1891.94	4.84
1892.18	-4.58523
1892.43	4.82437
1892.68	-0.8321
1892.93	-7.43393
1893.18	0.0836372
1893.43	1.9442
1893.68	0.972198
1893.93	-4.69553
1894.18	-3.76566
1894.43	3.75638
1894.68	0.91423
1894.93	-0.978218
1895.18	2.77103
1895.43	3.70683
1895.68	1.82637
1895.93	2.76585
1896.18	-1.93232
1896.43	-1.93175
1896.68	2.7705
1896.93	-1.92635
1897.18	2.77799
1897.42	1.83863
1897.68	1.83792
1897.92	-1.9278
1898.17	0.88871
1898.42	4.64298
1898.67	-0.0707779
1898.92	3.67723
1899.17	2.72044
1899.42	2.70258
1899.67	2.68788
1899.92	-1.08115
1900.17	-2.03188
1900.42	-1.10356
1900.67	4.52549
1900.92	1.70349
1901.16	-0.176128
1901.41	-2.99295
1901.66	-0.169991
1901.91	-2.98668
1902.16	2.65784
1902.41	3.60424
1902.66	-4.8566
1902.91	-2.9804
1903.16	-0.16795
1903.41	-0.178387
1903.66	0.750805
1903.91	-0.199352
1904.16	-0.208084
1904.41	-3.03664
1904.65	1.65718
1904.9	1.64972
1905.15	-0.238888
1905.4	4.4538
1905.65	1.62705
1905.9	5.37852
1906.15	4.41843
1906.4	-4.9991
1906.65	-0.314209
1906.9	4.37038
1907.14	-2.21436
1907.39	0.593609
1907.64	4.34432
1907.89	-1.29329
1908.14	5.28119
1908.39	0.587852
1908.64	2.46471
1908.89	5.28013
1909.14	4.33985
1909.39	-2.23682
1909.63	1.526
1909.88	0.591747
1910.13	1.54021
1910.38	0.609028
1910.63	-0.321907
1910.88	-0.313858
1911.13	-3.13472
1911.38	2.51696
1911.62	2.51563
1911.87	-0.314556
1912.12	2.50483
1912.37	-0.330524
1912.62	-2.22367
1912.87	2.47832
1913.12	5.29746
1913.37	-0.359749
1913.61	5.28692
1913.86	-2.24781
1914.11	0.585464
1914.36	-2.23388
1914.61	-1.28714
1914.86	-1.28415
1915.11	1.54903
1915.36	2.49553
1915.6	-4.10892
1915.85	-0.338276
1916.1	-4.12029
1916.35	-2.24314
1916.6	5.29602
1916.85	-0.37801
1917.1	3.37843
1917.34	0.534164
1917.59	0.520824
1917.84	2.39501
1918.09	6.1564
1918.34	-2.33348
1918.59	0.494793
1918.83	-1.38755
1919.08	1.44806
1919.33	4.28683
1919.58	-4.19901
1919.83	0.533733
1920.08	4.32258
1920.33	5.27056
1920.57	-3.23803
1920.82	2.41925
1921.07	6.19548
1921.32	1.47667
1921.57	-1.35349
1921.81	2.42895
1922.06	2.42912
1922.31	-1.35624
1922.56	4.31175
1922.81	-2.31884
1923.06	0.50433
1923.31	-1.40001
1923.55	3.31558
1923.8	-7.09308
1924.05	2.34824
1924.3	-4.28077
1924.55	3.26396
1924.79	0.416779
1925.04	-0.536591
1925.29	2.2928
1925.54	-0.54232
1925.79	-0.539398
1926.04	-0.532112
1926.28	0.419537
1926.53	4.20855
1926.78	-1.46136
1927.03	-1.45398
1927.28	0.441956
1927.52	5.17648
1927.77	4.22995
1928.02	-7.13565
1928.27	-3.34912
1928.52	1.38532
1928.76	4.22404
1929.01	-2.4088
1929.26	1.38065
1929.51	-0.514137
1929.76	-5.25093
1930	-2.39997
1930.25	2.34727
1930.5	1.40646
1930.75	-0.486958
1931	-1.43082
1931.24	-7.13089
1931.49	3.30737
1931.74	-2.39975
1931.99	-0.513905
1932.24	-0.527065
1932.48	5.1536
1932.73	0.395039
1932.98	-1.51673
1933.23	0.371693
1933.47	3.20416
1933.72	-1.54292
1933.97	0.361019
1934.22	5.124
1934.46	5.15097
1934.71	-8.12208
1934.96	-6.19269
1935.21	-8.07433
1935.46	1.47232
1935.7	3.39603
1935.95	-2.31681
1936.2	4.31887
1936.45	-1.41166
1936.69	1.4375
1936.94	2.37729
1937.19	-0.497959
1937.44	4.24606
1937.68	-5.29425
1937.93	-4.35792
1938.18	-0.565071
1938.43	4.17702
1938.68	-2.49238
1938.92	1.32423
1939.17	-2.48565
1939.42	-1.53352
1939.67	-1.53292
1939.91	-5.34445
1940.16	-3.43907
1940.41	-1.53862
1940.66	2.27762
1940.9	2.2827
1941.15	-4.36921
1941.4	1.36592
1941.64	-1.50396
1941.89	1.34571
1942.14	-0.58617
1942.39	-8.24716
1942.63	2.24979
1942.88	-2.47976
1943.13	3.25278
1943.38	1.3381
1943.62	3.22058
1943.87	1.28286
1944.12	-1.60201
1944.37	0.328571
1944.61	2.24099
1944.86	3.19913
1945.11	-6.34614
1945.35	4.16452
1945.6	-6.33995
1945.85	-0.602619
1946.1	2.26852
1946.34	-3.46581
1946.59	-3.46613
1946.84	1.31369
1947.09	-0.603153
1947.33	2.25821
1947.58	6.07243
1947.83	-1.58993
1948.07	-1.59792
1948.32	-1.60521
1948.57	0.299923
1948.82	-0.666927
1949.06	-4.49632
1949.31	-1.6264
1949.56	6.98509
1949.8	-3.53479
1950.05	-2.57359
1950.3	1.26044
1950.54	6.06249
1950.79	1.28947
1951.04	-3.49252
1951.29	0.353153
1951.53	-1.55257
1951.78	-0.582287
1952.03	-9.21426
1952.27	-1.53255
1952.52	-0.572128
1952.77	-3.45266
1953.01	0.380478
1953.26	-5.38107
1953.51	-0.573059
1953.76	2.2889
1954	-9.25908
1954.25	1.26517
1954.49	-1.6459
1954.74	-0.718243
1954.99	0.211838
1955.24	3.07227
1955.48	-5.55777
1955.73	0.188957
1955.98	-1.72151
1956.22	1.16782
1956.47	-0.7234
1956.72	-3.59598
1956.96	1.21173
1957.21	-0.706821
1957.46	-0.702442
1957.7	4.10401
1957.95	-1.65773
1958.2	-0.696758
1958.44	-2.62068
1958.69	1.22057
1958.94	-0.705837
1959.18	6.97281
1959.43	-1.69273
1959.68	-6.5081
1959.92	0.209549
1960.17	-0.764965
1960.42	2.10271
1960.66	-1.75283
1960.91	-0.806816
1961.16	0.137939
1961.4	-0.836853
1961.65	0.109272
1961.9	-1.82128
1962.14	0.0931778
1962.39	-1.82997
1962.63	-0.874802
1962.88	1.04053
1963.13	1.99612
1963.37	0.0719376
1963.62	2.94717
1963.87	-5.69722
1964.11	0.0587883
1964.36	0.0583878
1964.61	-3.78376
1964.85	-4.75107
1965.1	-4.7607
1965.35	1.9554
1965.59	-1.8934
1965.84	-0.938457
1966.08	5.78218
1966.33	-0.937122
1966.58	1.94935
1966.82	0.993362
1967.07	1.95592
1967.32	2.91738
1967.56	1.94854
1967.81	0.0204544
1968.05	6.74767
1968.3	0.975742
1968.55	9.62434
1968.79	0.00351334
1969.04	-3.85204
1969.29	0.939793
1969.53	4.76532
1969.78	-0.0601768
1970.02	-3.92242
1970.27	5.66062
1970.52	-2.99493
1970.76	4.67041
1971.01	4.65539
1971.25	5.60099
1971.5	6.5483
1971.75	8.45559
1971.99	1.73148
1972.24	2.68848
1972.48	1.72827
1972.73	5.56253
1972.98	0.759438
1973.22	5.54581
1973.47	0.735649
1973.71	5.51368
1973.96	6.45691
1974.21	2.6096
1974.45	-3.15152
1974.7	3.55052
1974.94	6.42065
1975.19	10.2512
1975.44	6.416
1975.68	3.54122
1975.93	5.46138
1976.17	0.667843
1976.42	3.54477
1976.66	6.42028
1976.91	5.45759
1977.16	2.57469
1977.4	11.2008
1977.65	5.43647
1977.89	10.2204
1978.14	4.45249
1978.39	3.47982
1978.63	3.46748
1978.88	3.45658
1979.12	6.32348
1979.37	4.40115
1979.61	0.56353
1979.86	2.47561
1980.1	1.51389
1980.35	6.30243
1980.6	0.54108
1980.84	8.19388
1981.09	9.13746
1981.33	6.25318
1981.58	5.28244
1981.82	8.14508
1982.07	10.0518
1982.31	7.17144
1982.56	10.0375
1982.81	4.2779
1983.05	8.09384
1983.3	9.99015
1983.54	6.14053
1983.79	15.6909
1984.03	5.15702
1984.28	7.06142
1984.52	8.0077
1984.77	7.04073
1985.02	7.98753
1985.26	14.6663
1985.51	16.557
1985.75	9.85389
1986	4.11481
1986.24	11.7601
1986.49	8.89582
1986.73	8.90078
1986.98	7.94479
1987.22	9.8505
1987.47	8.894
1987.71	6.96754
1987.96	10.7703
1988.21	5.96862
1988.45	7.85413
1988.7	7.82505
1988.94	12.5276
1989.19	16.209
1989.43	4.02872
1989.68	7.80724
1989.92	13.1618
1990.17	13.2926
1990.41	11.2272
1990.66	8.29058
1990.9	15.0308
1991.15	7.95885
1991.39	12.5098
1991.64	7.48406
1991.88	13.1386
1992.13	12.305
1992.37	13.9397
1992.62	13.5465
1992.86	13.5378
1993.11	11.4615
1993.35	9.13947
1993.6	10.1027
1993.84	10.921
1994.09	13.8393
1994.33	14.8098
1994.58	11.1267
1994.82	9.16571
1995.07	15.7345
1995.31	13.3862
1995.56	12.8555
1995.8	10.6913
1996.05	13.4507
1996.29	16.1028
1996.54	12.526
1996.78	17.5702
1997.03	15.1301
1997.27	15.0812
1997.52	15.5755
1997.76	13.8564
1998.01	17.779
1998.25	13.5329
1998.5	14.7455
1998.74	12.087
1998.99	15.6473
1999.23	18.502
1999.48	13.8518
1999.72	19.0008
1999.97	16.4881
2000.21	14.4476
2000.46	16.2519
2000.7	18.6773
2000.95	13.6214
2001.19	16.2478
2001.43	17.0793
2001.68	18.459
2001.92	15.6177
2002.17	14.9968
2002.41	19.8061
2002.66	16.2163
2002.9	18.5193
2003.15	15.889
2003.39	15.0906
2003.64	16.6975
2003.88	16.3823
2004.13	17.5999
2004.37	17.2378
2004.61	17.1499
2004.86	17.249
2005.1	21.1665
2005.35	15.6946
2005.59	16.7447
2005.84	18.7234
2006.08	17.4101
2006.33	16.2528
2006.57	19.2921
2006.81	17.9909
2007.06	16.8438
2007.3	18.6283
2007.55	15.9387
2007.79	15.3992
2008.04	17.6347
2008.28	10.2259
2008.53	17.6388
2008.77	20.7172
2009.01	17.6413
2009.26	14.4908
2009.5	12.3875
2009.75	18.25
2009.99	13.2636
2010.24	19.812
2010.48	12.8942
2010.73	18.0232
2010.97	15.69
2011.21	18.8297
2011.46	16.8961
2011.7	15.671
2011.95	18.9136
2012.19	15.3818
2012.43	18.1677
2012.68	19.1049
2012.92	14.3931
2013.17	20.0299
2013.42	20.9492
2013.67	21.858
2013.91	19.019
2014.16	12.4171
2014.41	16.1511
2014.66	17.0591
2014.9	14.2158
2015.15	22.6552
2015.4	21.7208
2015.64	17.9764
2015.89	11.4168
2016.14	22.6915
2016.39	11.4198
2016.63	16.1305
2016.88	16.1763
2017.13	20.8859
2017.37	16.1841
2017.62	18.0557
2017.87	8.64772
2018.11	18.0247
2018.36	18.0022
2018.61	17.9778
2018.86	18.8946
2019.1	13.2466
2019.35	15.0999
2019.6	16.9539
2019.84	14.1333
2020.09	17.8735
2020.34	14.1239
2020.58	15.9976
2020.83	11.3137
2021.08	7.56714
2021.33	13.1914
2021.57	14.1336
2021.82	10.3892
2022.07	17.8814
2022.31	9.44891
2022.56	15.9981
2022.81	15.9886
2023.05	7.55214
2023.3	15.9611
2023.55	8.4662
2023.8	15.9392
2024.04	14.058
2024.29	9.37304
2024.54	12.1691
2024.78	10.284
2025.03	12.1357
2025.27	7.45041
2025.52	14.9043
2025.77	13.0228
2026.02	12.0767
2026.26	11.1268
2026.51	1.80777
2026.76	10.225
2027	10.2621
2027.25	12.1751
2027.5	10.3558
2027.74	7.58048
2027.99	6.64072
2028.23	10.3512
2028.48	6.56723
2028.73	10.158
2028.98	6.56942
2029.22	5.82065
2029.47	9.46617
2029.72	17.9478
2029.96	11.2982
2030.21	6.57149
2030.45	10.2479
2030.7	9.31533
2030.95	4.61505
2031.19	9.31675
2031.44	10.2849
2031.69	8.41376
2031.93	9.35044
2032.18	13.0877
2032.43	12.1743
2032.67	6.5942
2032.92	7.55025
2033.17	9.43948
2033.41	8.52217
2033.66	5.7322
2033.91	13.231
2034.15	4.82595
2034.4	4.80409
2034.64	9.44512
2034.89	6.59477
2035.14	8.45105
2035.38	7.54387
2035.63	14.1006
2035.87	6.66433
2036.12	2.96571
2036.37	11.4116
2036.61	6.73664
2036.86	6.71415
2037.11	5.78478
2037.35	10.4761
2037.6	11.4146
2037.84	8.61093
2038.09	11.4146
2038.34	8.60748
2038.58	8.60412
2038.83	10.4691
2039.08	2.05522
2039.32	3.92052
2039.57	6.71869
2039.81	12.3177
2040.06	2.03891
2040.31	13.2313
2040.55	2.95514
2040.8	4.81324
2041.04	4.80595
2041.29	1.07028
2041.54	9.458
2041.78	1.06787
2042.03	10.3917
2042.27	3.86438
2042.52	2.93132
2042.77	5.72149
2043.01	7.58568
2043.26	2.93169
2043.5	6.66778
2043.75	2.95815
2044	4.8466
2044.24	3.93896
2044.49	6.75013
2044.73	8.61848
2044.98	5.81276
2045.23	6.7276
2045.47	3.89326
2045.72	1.15907
2045.96	6.77544
2046.21	4.98427
2046.45	6.00494
2046.7	5.96762
2046.95	4.05661
2047.19	5.89335
2047.44	4.96729
2047.68	8.69073
2047.93	6.78927
2048.17	-0.673546
2048.42	9.58821
2048.67	2.13809
2048.91	4.01134
2049.16	0.292042
2049.4	-1.55634
2049.65	1.2569
2049.89	0.342293
2050.14	5.03166
2050.39	5.05064
2050.63	6.00429
2050.88	4.14957
2051.12	1.35506
2051.37	3.22641
2051.61	3.22272
2051.86	5.08227
2052.11	0.419083
2052.35	4.16092
2052.6	6.97598
2052.84	8.85209
2053.09	7.9304
2053.33	0.4711
2053.58	7.96128
2053.82	3.30746
2054.07	0.53064
2054.31	3.35102
2054.56	4.29897
2054.8	0.564995
2055.05	6.18293
2055.3	0.574272
2055.54	-1.29317
2055.79	8.98924
2056.03	0.574669
2056.28	1.51391
2056.52	1.51608
2056.77	5.25674
2057.01	1.52126
2057.26	3.3969
2057.5	-1.26803
2057.75	3.41604
2058	2.49361
2058.24	5.31261
2058.49	-0.28471
2058.73	4.41015
2058.98	-1.18642
2059.22	-0.234886
2059.47	0.714703
2059.71	0.724327
2059.96	4.47837
2060.2	2.61393
2060.45	-3.00152
2060.69	4.48694
2060.94	3.55288
2061.18	5.43751
2061.43	3.57944
2061.67	-0.153545
2061.92	3.60053
2062.16	1.73609
2062.41	3.61755
2062.65	-1.99025
2062.9	0.830875
2063.14	4.59095
2063.39	0.859699
2063.63	-0.0625725
2063.88	-4.73498
2064.12	8.39768
2064.37	4.66029
2064.61	-4.70215
2064.86	2.80972
2065.1	3.76162
2065.35	-0.909157
2065.59	0.987545
2065.84	0.0690155
2066.08	0.0871239
2066.33	1.981
2066.57	-2.70001
2066.82	4.82166
2067.06	1.07797
2067.31	2.02998
2067.55	2.981
2067.8	-3.58139
2068.04	-0.748188
2068.29	1.1451
2068.53	1.15766
2068.78	1.16817
2069.02	1.18277
2069.27	-4.44941
2069.51	-1.6272
2069.76	1.18796
2070	2.11588
2070.25	0.237953
2070.49	-3.50685
2070.73	2.15549
2070.98	1.24643
2071.22	0.336933
2071.47	4.10405
2071.71	-0.603176
2071.96	1.33643
2072.2	-0.520779
2072.45	-1.45726
2072.69	-0.510502
2072.94	2.3212
2073.18	0.442551
2073.43	1.39225
2073.67	0.456688
2073.92	0.467003
2074.16	5.1846
2074.4	0.487766
2074.65	3.32629
2074.89	-8.90136
2075.14	2.42211
2075.38	-0.381104
2075.63	-0.353634
2075.87	-4.09632
2076.12	-2.18613
2076.36	0.661915
2076.6	2.55959
2076.85	-2.14997
2077.09	-1.20184
2077.34	-0.25803
2077.58	-4.03326
2077.83	-0.27005
2078.07	1.61979
2078.31	0.690777
2078.56	1.65235
2078.8	-0.221737
2079.05	-1.15263
2079.29	-4.91238
2079.54	3.6004
2079.78	-3.92351
2080.03	-1.07323
2080.27	1.7771
2080.51	-1.98623
2080.76	3.69797
2081	0.872585
2081.25	-3.8474
2081.49	1.8279
2081.74	5.61489
2081.98	-2.87993
2082.22	-1.92754
2082.47	1.86414
2082.71	3.76652
2082.96	-0.00166321
2083.2	3.78847
2083.45	0.961834
2083.69	-0.920753
2083.93	1.92155
2084.18	-6.57356
2084.42	-2.78405
2084.67	1.00451
2084.91	1.01447
2085.15	-0.864811
2085.4	0.0898514
2085.64	-0.845989
2085.89	4.83366
2086.13	1.06605
2086.37	1.08665
2086.62	-1.72692
2086.86	-2.65393
2087.11	0.197395
2087.35	0.212128
2087.59	0.228695
2087.84	-2.59678
2088.08	4.98401
2088.32	-4.46962
2088.57	-1.61977
2088.81	-4.4478
2089.06	-1.59667
2089.3	-4.42487
2089.54	-4.40937
2089.79	-4.39328
2090.03	0.362198
2090.28	-3.41314
2090.52	-1.50689
2090.76	0.400467
2091.01	2.30906
2091.25	1.37619
2091.5	2.33847
2091.74	-0.49044
2091.98	-1.41795
2092.23	-0.447899
2092.47	2.42123
2092.72	1.49659
2092.96	-1.32627
2093.2	-2.25499
2093.45	1.56409
2093.69	0.63512
2093.93	1.60577
2094.18	-1.22672
2094.42	2.59362
2094.66	-3.09834
2094.91	-0.236282
2095.15	-1.17911
2095.39	1.67976
2095.64	0.731827
2095.88	2.63451
2096.13	-2.1128
2096.37	-4.0076
2096.61	-4.00048
2096.86	-3.04198
2097.1	1.71607
2097.34	-0.17947
2097.59	-3.97628
2097.83	-0.176125
2098.07	-2.0683
2098.32	-3.00974
2098.56	-3.95089
2098.8	-2.99722
2099.05	-5.83448
2099.29	1.76749
2099.53	5.57118
2099.78	0.834099
2100.02	-1.05457
2100.27	-1.04403
2100.51	-1.98166
2100.75	-0.0711441
2101	-1.9552
2101.24	-3.83411
2101.48	2.83089
2101.73	-2.85184
2101.97	0.960064
2102.21	-0.929382
2102.45	-2.81981
2102.7	1.93967
2102.94	4.79656
2103.18	1.95042
2103.43	-0.896538
2103.67	1.95702
2103.92	1.96604
2104.16	1.02456
2104.4	1.98486
2104.64	2.94818
2104.89	1.06641
2105.13	2.03274
2105.37	0.14962
2105.62	-1.73261
2105.86	-1.71331
2106.1	-0.744995
2106.35	3.07171
2106.59	0.234867
2106.83	-1.65386
2107.08	0.259537
2107.32	2.17526
2107.56	-0.665325
2107.8	-1.61021
2108.05	-0.657066
2108.29	0.292976
2108.53	-3.50827
2108.78	0.290737
2109.02	3.14085
2109.26	0.299126
2109.51	-1.58776
2109.75	3.18164
2109.99	-0.598694
2110.23	4.16199
2110.48	-1.52736
2110.72	-0.567093
2110.96	0.393162
2111.21	1.35361
2111.45	-2.43636
2111.69	0.421101
2111.93	0.42572
2112.18	-6.21606
2112.42	0.439667
2112.66	-1.44944
2112.91	3.31356
2113.15	0.479095
2113.39	-0.455498
2113.63	0.51519
2113.88	-0.41621
2114.12	4.35064
2114.36	-2.29474
2114.61	-0.387108
2114.85	4.37413
2115.09	-5.11722
2115.33	-1.30433
2115.58	-4.1472
2115.82	-2.23946
2116.06	2.51893
2116.31	0.62537
2116.55	0.627308
2116.79	2.52916
2117.03	1.58581
2117.28	-1.25495
2117.52	0.652943
2117.76	-5.98237
2118	1.62069
2118.25	-1.22383
2118.49	0.678371
2118.73	-3.11823
2118.97	-0.272987
2119.22	-4.06588
2119.46	-1.21851
2119.7	-1.21656
2119.94	-2.1623
2120.19	2.57945
2120.43	-1.2069
2120.67	0.696392
2120.91	-5.92495
2121.16	-3.06567
2121.4	-4.9474
2121.64	-2.08492
2121.88	-3.96157
2122.13	-0.149094
2122.37	-3.92503
2122.61	1.78535
2122.85	-2.94288
2123.1	-1.02914
2123.34	0.884331
2123.58	0.898102
2123.82	-0.0393333
2124.07	-1.93092
2124.31	2.82106
2124.55	-0.0232773
2124.79	-6.66531
2125.03	-0.978024
2125.28	-0.986839
2125.52	0.900852
2125.76	-0.0504532
2126	2.78806
2126.25	0.892227
2126.49	-1.94772
2126.73	-0.0533257
2126.97	-1.94372
2127.21	-0.0503349
2127.46	2.78814
2127.7	-0.042099
2127.94	0.911385
2128.18	0.919029
2128.43	-1.91122
2128.67	-1.90356
2128.91	0.942516
2129.15	-2.82823
2129.39	0.0159988
2129.64	-5.64815
2129.88	-1.86005
2130.12	-2.79677
2130.36	0.991505
2130.6	0.999065
2130.85	-0.883896
2131.09	-1.82253
2131.33	-1.81725
2131.57	3.85432
2131.81	2.91296
2132.06	-0.860291
2132.3	3.86668
2132.54	-2.73686
2132.78	-2.7343
2133.02	-4.61874
2133.27	1.04937
2133.51	2.94593
2133.75	0.12674
2133.99	-2.69281
2134.23	2.0359
2134.48	0.160221
2134.72	1.11515
2134.96	-1.70732
2135.2	1.13256
2135.44	-0.746239
2135.68	0.205242
2135.93	-3.56324
2136.17	3.98738
2136.41	0.211143
2136.65	-0.734093
2136.89	-4.50091
2137.14	-1.66142
2137.38	-0.707355
2137.62	2.13153
2137.86	-0.682827
2138.1	3.10787
2138.34	-2.54404
2138.59	0.283157
2138.83	-1.60093
2139.07	-2.52695
2139.31	0.323959
2139.55	3.17289
2139.79	4.10364
2140.03	2.21143
2140.28	2.2136
2140.52	3.15884
2140.76	-0.605236
2141	-1.54198
2141.24	-1.53554
2141.49	-3.41267
2141.73	-2.46096
2141.97	3.19042
2142.21	3.19013
2142.45	1.31316
2142.69	-4.32529
2142.93	-4.30893
2143.18	-0.527412
2143.42	-5.19786
2143.66	-2.37621
2143.9	-1.52156
2144.14	2.24613
2144.38	0.383667
2144.62	-0.533035
2144.87	-1.45073
2145.11	-4.25593
2145.35	0.433491
2145.59	-0.494164
2145.83	3.27788
2146.07	0.463928
2146.31	1.40984
2146.55	-1.40487
2146.8	-0.458912
2147.04	-0.453011
2147.28	2.37153
2147.52	3.31431
2147.76	5.1966
2148	3.32108
2148.24	-0.431877
2148.48	4.26868
2148.73	-0.423264
2148.97	1.45854
2149.21	1.46102
2149.45	3.33878
2149.69	2.3989
2149.93	1.45197
2150.17	-4.17579
2150.42	-5.11432
2150.66	0.511742
2150.9	-2.29553
2151.14	6.14795
2151.38	0.5364
2151.62	-2.2607
2151.86	-2.24824
2152.1	3.39293
2152.34	0.590954
2152.58	-0.332649
2152.83	-0.329964
2153.07	3.42384
2153.31	1.54937
2153.55	-5.01065
2153.79	-1.25595
2154.03	0.623402
2154.27	-3.1232
2154.51	3.43402
2154.75	-0.318367
2154.99	1.54548
2155.24	-4.07694
2155.48	1.52713
2155.72	3.3923
2155.96	-2.22063
2156.2	3.38493
2156.44	-0.352234
2156.68	1.52023
2156.92	-5.94669
2157.16	0.599545
2157.4	0.607887
2157.64	0.618919
2157.89	-2.17041
2158.13	3.45166
2158.37	2.53201
2158.61	-0.262314
2158.85	2.54953
2159.09	-4.92178
2159.33	-1.17851
2159.57	0.693546
2159.81	-0.239471
2160.05	-3.97606
2160.29	1.62643
2160.53	-1.17707
2160.77	-0.244324
2161.01	2.55562
2161.25	2.55869
2161.5	-3.96774
2161.74	0.701836
2161.98	1.63859
2162.22	5.37642
2162.46	4.45095
2162.7	-1.13882
2162.94	0.733883
2163.18	-0.19492
2163.42	-1.12534
2163.66	5.40614
2163.9	1.67896
2164.14	-2.0477
2164.38	-2.97706
2164.62	3.54715
2164.86	0.74765
2165.11	3.54357
2165.35	-1.10611
2165.59	-2.95868
2165.83	-1.0873
2166.07	2.64795
2166.31	4.51931
2166.55	-1.06926
2166.79	1.72873
2167.03	-0.133369
2167.27	0.797237
2167.51	-0.132881
2167.75	0.796051
2167.99	2.65246
2168.23	-2.01218
2168.47	0.767673
2168.71	3.55736
2168.95	-0.155403
2169.19	-2.00571
2169.43	2.65528
2169.67	-1.97956
2169.91	2.68924
2170.15	2.71046
2170.39	-0.990524
2170.63	2.7496
2170.87	-0.033905
2171.11	-1.89246
2171.35	-3.75526
2171.59	-0.958992
2171.83	-1.89842
2172.07	1.80173
2172.31	3.65222
2172.56	1.79175
2172.79	2.72032
2173.04	-1.92455
2173.28	0.868038
2173.51	3.66098
2173.76	-1.90769
2174	-4.68617
2174.24	-3.7462
2174.48	2.76878
2174.72	5.56508
2174.96	-2.79283
2175.2	5.57768
2175.44	-4.64029
2175.68	1.86885
2175.92	-1.84483
2176.16	-0.910831
2176.4	5.59752
2176.64	-0.904064
2176.88	-1.83306
2177.12	3.74397
2177.36	3.74998
2177.6	-4.60356
2177.84	1.90561
2178.08	-0.876274
2178.32	-0.869091
2178.55	2.84858
2178.8	2.84304
2179.03	0.0549431
2179.28	-2.72573
2179.52	0.066906
2179.75	5.64407
2180	4.72163
2180.23	-2.70108
2180.47	1.94664
2180.71	-0.834488
2180.95	1.95376
2181.19	-5.47037
2181.43	1.03245
2181.67	2.89185
2181.91	0.107655
2182.15	-1.74761
2182.39	-3.60039
2182.63	5.67922
2182.87	0.113312
2183.11	1.04254
2183.35	-0.815178
2183.59	-0.818653
2183.83	0.10239
2184.07	1.02603
2184.31	-0.828716
2184.55	1.02392
2184.79	3.80665
2185.03	-1.74647
2185.27	-0.81126
2185.51	1.9767
2185.75	1.05788
2185.99	4.7754
2186.23	1.07911
2186.47	2.94561
2186.7	-2.60694
2186.95	-1.66422
2187.18	0.207561
2187.42	1.15198
2187.66	1.16819
2187.9	-5.31987
2188.14	3.04579
2188.38	3.97455
2188.62	2.11458
2188.86	-5.3159
2189.1	-3.46235
2189.34	2.10125
2189.58	0.23904
2189.82	-2.55162
2190.06	5.78684
2190.3	3.00419
2190.54	2.07975
2190.78	0.230854
2191.01	-0.688713
2191.25	3.02722
2191.49	3.95853
2191.73	2.11068
2191.97	-3.44566
2192.21	-0.656296
2192.45	7.69836
2192.69	-1.56941
2192.93	-1.56211
2193.17	2.1592
2193.41	2.17019
2193.65	1.25266
2193.89	-2.44793
2194.13	0.357567
2194.36	1.30937
2194.6	-1.46239
2194.84	1.33695
2195.08	3.19771
2195.32	-0.521671
2195.56	0.407513
2195.8	1.3343
2196.04	-0.528938
2196.28	1.32145
2196.52	4.09656
2196.76	-1.48291
2197	1.29531
2197.23	3.14667
2197.47	0.3601
2197.71	-2.42487
2197.95	-4.27641
2198.19	-2.41705
2198.43	-1.48224
2198.67	-2.39804
2198.91	2.25489
2199.15	0.413441
2199.38	3.21622
2199.62	2.30254
2199.86	1.38986
2200.1	-5.10133
2200.34	6.07885
2200.58	-3.20022
2200.82	1.4744
2201.06	-2.23205
2201.3	0.576744
2201.54	5.24905
2201.77	8.02846
2202.01	1.46946
2202.25	0.458992
2202.49	3.18784
2202.73	2.28925
2202.97	2.36268
2203.21	3.32766
2203.45	-3.19135
2203.68	0.523067
2203.92	1.4902
2204.16	3.48873
2204.4	-3.08769
2204.64	2.50655
2204.88	-0.281754
2205.12	1.55853
2205.36	2.45642
2205.59	1.49607
2205.83	-5.03272
2206.07	2.4022
2206.31	-1.31349
2206.55	-0.37273
2206.79	0.560799
2207.03	4.26712
2207.26	3.34229
2207.5	2.42086
2207.74	1.50062
2207.98	-0.3494
2208.22	0.591335
2208.46	3.39367
2208.7	-0.319042
2208.93	-2.17212
2209.17	0.628525
2209.41	-1.2279
2209.65	1.57029
2209.89	5.29775
2210.13	0.641918
2210.36	3.43921
2210.6	1.58353
2210.84	1.5911
2211.08	2.53113
2211.32	5.33529
2211.56	2.54758
2211.8	3.48842
2212.03	-0.230488
2212.27	0.712021
2212.51	-1.146
2212.75	5.38841
2212.99	0.723083
2213.23	-1.14471
2213.46	-3.01198
2213.7	1.64627
2213.94	0.708401
2214.18	2.57679
2214.42	-2.07644
2214.66	2.60468
2214.89	4.48862
2215.13	1.69437
2215.37	-2.03485
2215.61	-1.09758
2215.85	-1.09457
2216.08	2.6423
2216.32	-1.0909
2216.56	1.7108
2216.8	2.64457
2217.04	-1.0905
2217.28	-0.157246
2217.51	-1.08975
2217.75	1.71361
2217.99	0.782917
2218.23	-1.08345
2218.47	0.784462
2218.7	0.787193
2218.94	-1.07549
2219.18	-2.00322
2219.42	-2.92992
2219.66	1.74903
2219.9	-0.114361
2220.13	0.825855
2220.37	-0.103962
2220.61	1.76519
2220.85	-2.90857
2221.09	-2.90904
2221.32	0.825909
2221.56	-1.05106
2221.8	0.807652
2222.04	2.6673
2222.27	3.59383
2222.51	-7.61262
2222.75	-0.145145
2222.99	-1.07528
2223.23	-2.93665
2223.46	-1.06318
2223.7	-1.05627
2223.94	-1.98105
2224.18	0.833633
2224.42	-2.89293
2224.65	0.858002
2224.89	1.80353
2225.13	0.877316
2225.37	-1.92095
2225.6	-0.975548
2225.84	-0.0281982
2226.08	-3.7651
2226.32	-4.69416
2226.56	-2.81278
2226.79	-2.80695
2227.03	0.949917
2227.27	-2.79186
2227.51	3.77719
2227.74	3.78257
2227.98	0.0346069
2228.22	4.72268
2228.46	1.90658
2228.69	1.90387
2228.93	0.0261726
2229.17	1.89936
2229.41	-2.79002
2229.64	-1.85247
2229.88	0.0290451
2230.12	-1.83659
2230.36	0.0486031
2230.6	-2.75935
2230.83	1.93998
2231.07	-4.62258
2231.31	-1.79872
2231.55	3.84456
2231.78	0.0974121
2232.02	1.04438
2232.26	-0.827248
2232.5	0.120041
2232.73	2.00782
2232.97	0.134544
2233.21	2.02277
2233.45	0.148621
2233.68	-1.72617
2233.92	2.98579
2234.16	2.99154
2234.39	2.99607
2234.63	0.169926
2234.87	-1.71571
2235.11	-1.7203
2235.34	0.154747
2235.58	-0.799667
2235.82	2.01153
2236.06	0.131458
2236.29	2.01363
2236.53	-1.74624
2236.77	1.07712
2237	0.137871
2237.24	1.08027
2237.48	1.08929
2237.72	0.156261
2237.95	-1.71219
2238.19	-5.46459
2238.43	-0.74144
2238.67	-1.67388
2238.9	-0.721897
2239.14	-4.48297
2239.38	1.18914
2239.61	-0.695412
2239.85	-2.58582
2240.09	-0.704586
2240.33	-2.60147
2240.56	-1.6678
2240.8	-0.729881
2241.04	1.17179
2241.27	-0.700527
2241.51	2.13194
2241.75	-1.64014
2241.99	-1.63776
2242.22	0.251503
2242.46	-4.46463
2242.7	-4.46144
2242.93	2.15053
2243.17	-0.681324
2243.41	2.14879
2243.64	-4.46449
2243.88	-2.58257
2244.12	2.13267
2244.36	-2.58747
2244.59	1.18804
2244.83	-0.694252
2245.07	0.260414
2245.3	0.275566
2245.54	1.234
2245.78	-1.59272
2246.01	-2.53142
2246.25	-2.52444
2246.49	2.21093
2246.72	1.27137
2246.96	-3.45533
2247.2	-0.612179
2247.43	-5.33864
2247.67	5.07471
2247.91	-0.602711
2248.14	-1.55028
2248.38	-2.49923
2248.62	-0.609333
2248.85	-4.39755
2249.09	-1.56127
2249.33	3.16711
2249.56	-4.40466
2249.8	-2.50672
2250.04	1.28294
2250.27	-3.45047
2250.51	-4.40186
2250.75	0.321823
2250.98	1.25923
2251.22	-2.53392
2251.46	0.295673
2251.69	-1.60143
2251.93	1.23217
2252.17	1.23304
2252.4	-1.59998
2252.64	-2.54064
2252.88	2.19559
2253.11	0.315422
2253.35	0.335682
2253.59	-4.38584
2253.82	1.30814
2254.06	4.15989
2254.3	-3.41557
2254.53	-1.51338
2254.77	3.23181
2255.01	-6.2499
2255.24	2.27927
2255.48	0.384354
2255.72	1.33216
2255.95	-1.51158
2256.19	3.23067
2256.42	1.34035
2256.66	-2.44717
2256.9	1.35359
2257.13	-1.48738
2257.37	-2.43087
2257.61	3.27005
2257.84	-0.52174
2258.08	4.22957
2258.32	-2.41576
2258.55	-0.515453
2258.79	-2.41294
2259.02	0.439404
2259.26	0.444401
2259.5	-0.500401
2259.73	-3.34791
2259.97	-0.494625
2260.2	-1.44117
2260.44	4.26538
2260.68	1.41723
2260.91	4.27269
2261.15	-0.475555
2261.39	-5.21994
2261.62	-0.456409
2261.86	-4.26091
2262.1	-3.30779
2262.33	-2.35372
2262.57	-1.39939
2262.8	-3.29827
2263.04	2.42097
2263.28	0.525158
2263.51	-0.417461
2263.75	-0.406189
2263.98	1.51306
2264.22	-3.23933
2264.46	6.3129
2264.69	-0.351784
2264.93	0.613472
2265.16	-2.24183
2265.4	-2.2347
2265.64	2.54731
2265.87	-2.2277
2266.11	-3.18178
2266.34	-3.18484
2266.58	1.58207
2266.81	-0.337105
2267.05	-3.2104
2267.29	-1.30973
2267.52	-2.27029
2267.76	-1.32183
2267.99	2.48769
2268.23	1.52476
2268.47	-3.24987
2268.7	0.561729
2268.94	-1.34419
2269.17	-1.33924
2269.41	-2.28536
2269.65	3.44885
2269.88	0.597462
2270.12	-5.11921
2270.35	1.57758
2270.59	-3.18666
2270.82	1.59779
2271.06	-2.21989
2271.3	-3.16794
2271.53	-3.16168
2271.77	2.58004
2272	-0.283165
2272.24	-1.23247
2272.47	0.684708
2272.71	-2.18439
2272.95	0.687542
2273.18	1.64651
2273.42	-0.264706
2273.65	-0.262558
2273.89	4.52446
2274.12	-2.17216
2274.36	4.5294
2274.6	1.66022
2274.83	1.66253
2275.07	-1.20676
2275.3	-2.16123
2275.54	0.713196
2275.77	3.58838
2276.01	-2.15726
2276.24	0.721142
2276.48	-6.93175
2276.72	3.61506
2276.95	-3.0833
2277.18	-1.15886
2277.42	-3.06755
2277.66	-2.09653
2277.89	-1.12309
2278.13	-3.02765
2278.36	3.70935
2278.6	2.75585
2278.83	-1.08236
2279.07	-0.12096
2279.3	-1.08232
2279.54	-1.08421
2279.78	-0.130192
2280.01	-2.06639
2280.24	-0.157429
2280.48	3.66983
2280.72	-0.175465
2280.95	0.776569
2281.19	2.68896
2281.42	-0.190285
2281.66	0.764019
2281.89	-2.11427
2282.13	3.64167
2282.36	-1.14759
2282.6	-0.182732
2282.83	-3.05127
2283.07	-1.12381
2283.3	-2.07386
2283.54	1.77612
2283.77	-1.08738
2284.01	-1.06913
2284.24	-4.89639
2284.48	-1.99545
2284.71	3.78541
2284.95	0.905865
2285.19	0.91597
2285.42	2.85033
2285.65	-3.88199
2285.89	-1.95519
2286.12	-2.92417
2286.36	-2.93655
2286.59	-5.82206
2286.83	-1.97103
2287.06	2.84629
2287.3	2.86671
2287.54	-0.00463867
2287.77	0.965324
2288	-2.88182
2288.24	4.83659
2288.47	8.68821
2288.71	5.79269
2288.94	3.86117
2289.18	3.85484
2289.41	8.65645
2289.65	2.86652
2289.88	2.85368
2290.12	4.76105
2290.35	-1.97368
2290.59	0.908005
2290.82	0.909565
2291.06	0.911819
2291.29	-2.92704
2291.53	-3.87803
2291.76	-0.0166054
2292	-1.93108
2292.23	-1.92324
2292.47	2.89804
2292.7	0.0189095
2292.94	4.8452
2293.17	4.85642
2293.41	1.97511
2293.64	1.01912
2293.88	-1.86621
2294.11	-3.79014
2294.34	-3.79111
2294.58	-3.79355
2294.81	-5.72428
2295.05	1.97804
2295.28	-1.87885
2295.52	2.93332
2295.75	-0.922649
2295.99	5.81375
2296.22	-1.89148
2296.46	-1.89822
2296.69	-0.949184
2296.93	-2.87358
2297.16	-0.944489
2297.39	-0.937321
2297.63	0.996452
2297.86	1.0073
2298.1	-2.83163
2298.33	4.88902
2298.57	2.00987
2298.8	1.05392
2299.04	1.06374
2299.27	0.111778
2299.51	-2.77098
2299.74	-1.79813
2299.97	3.03074
2300.21	2.06755
2300.44	-0.824104
2300.68	4.0002
2300.91	-0.81649
2301.15	0.156971
2301.38	1.1291
2301.61	2.10088
2301.85	-5.61617
2302.08	1.14363
2302.32	0.179306
2302.55	-0.787163
2302.79	-2.71776
2303.02	1.14584
2303.25	0.182018
2303.49	2.11223
2303.72	-1.74643
2303.96	-2.70861
2304.19	-0.772499
2304.43	-0.763821
2304.66	-1.72112
2304.89	-0.7491
2305.13	1.19018
2305.36	2.16599
2305.6	2.1729
2305.83	6.04188
2306.07	2.18293
2306.3	-0.708675
2306.53	3.16428
2306.77	-1.66427
2307	-1.6612
2307.24	3.17347
2307.47	1.24142
2307.7	0.273697
2307.94	2.2039
2308.17	4.13578
2308.41	-1.66288
2308.64	-0.697479
2308.87	-5.52577
2309.11	-1.65725
2309.34	2.21591
2309.58	3.19169
2309.81	0.304245
2310.04	-0.648251
2310.28	4.1986
2310.51	-1.59909
2310.75	0.339146
2310.98	1.30781
2311.21	0.338726
2311.45	3.23334
2311.68	-2.58707
2311.92	-3.57354
2312.15	2.20992
2312.38	1.23676
2312.62	0.268162
2312.85	-0.70129
2313.08	0.261044
2313.32	3.15747
2313.55	0.26968
2313.79	-2.61217
2314.02	3.19812
2314.25	-0.651203
2314.49	3.22729
2314.72	2.27574
2314.95	2.29326
2315.19	5.21115
2315.42	-1.5513
2315.66	-0.591507
2315.89	-2.53258
2316.12	3.26315
2316.36	7.12033
2316.59	-0.630123
2316.82	4.18999
2317.06	-0.641754
2317.29	4.18745
2317.52	2.26063
2317.76	-2.56336
2317.99	-0.619816
2318.23	1.32129
2318.46	6.13904
2318.69	5.16813
2318.93	2.26788
2319.16	5.15968
2319.39	3.22402
2319.63	5.15007
2319.86	2.25237
2320.09	7.07597
2320.33	6.1132
2320.56	7.08134
2320.79	5.15303
2321.03	5.15911
2321.26	9.99352
2321.5	7.10733
2321.73	9.04877
2321.96	16.7871
2322.2	11.9743
2322.43	12.9581
2322.66	8.1401
2322.9	12.0134
2323.13	12.9795
2323.36	18.784
2323.6	16.8563
2323.83	15.8942
2324.06	14.9326
2324.3	26.5397
2324.53	32.3403
2324.76	36.2062
2325	30.3893
2325.23	41.9661
2325.46	53.5313
2325.7	60.2719
2325.93	72.8072
2326.16	99.819
2326.4	125.854
2326.63	178.897
2326.86	267.616
2327.09	391.989
2327.33	551.026
2327.56	670.457
2327.79	722.414
2328.03	596.981
2328.26	391.622
2328.49	288.514
2328.73	198.879
2328.96	138.161
2329.19	100.542
2329.43	69.6833
2329.66	60.0224
2329.89	41.7134
2330.13	38.8208
2330.36	27.2722
2330.59	25.3414
2330.82	15.705
2331.06	15.7001
2331.29	12.8092
2331.52	9.92339
2331.76	9.93035
2331.99	5.12118
2332.22	8.98588
2332.46	8.00919
2332.69	7.99959
2332.92	8.95541
2333.16	7.02251
2333.39	3.16469
2333.62	4.1214
2333.85	1.2282
2334.09	4.11102
2334.32	3.14183
2334.55	6.98256
2334.79	2.15997
2335.02	2.15269
2335.25	5.0323
2335.48	5.99108
2335.72	5.98712
2335.95	5.02562
2336.18	2.14182
2336.41	4.06218
2336.65	-1.71376
2336.88	2.12814
2337.11	3.08584
2337.34	-0.76376
2337.58	4.03929
2337.81	3.07381
2338.04	4.02921
2338.28	3.0625
2338.51	1.1356
2338.74	-1.75256
2338.97	4.97152
2339.21	5.93139
2339.44	4.00702
2339.67	4.96493
2339.91	0.154396
2340.14	0.147888
2340.37	0.139648
2340.6	7.81627
2340.84	3.00129
2341.07	1.06734
2341.3	1.05238
2341.53	-2.80383
2341.77	2.93562
2342	6.75637
2342.23	1.94837
2342.46	0.978168
2342.7	2.885
2342.93	-3.83515
2343.16	2.8681
2343.39	4.77935
2343.63	3.81593
2343.86	3.80858
2344.09	1.88429
2344.32	2.83772
2344.56	-0.0411453
2344.79	1.87155
2345.02	0.905674
2345.25	2.81401
2345.49	-1.03067
2345.72	0.873405
2345.95	9.47914
2346.18	2.75813
2346.41	0.82798
2346.65	-2.05505
2346.88	1.76598
2347.11	-1.11624
2347.34	2.70276
2347.58	1.73427
2347.81	-4.01895
2348.04	-1.15408
2348.27	-0.202648
2348.5	5.53902
2348.74	-0.212212
2348.97	1.6941
2349.2	3.59647
2349.43	-2.16438
2349.67	2.59594
2349.9	0.655483
2350.13	-0.330051
2350.36	6.32624
2350.59	-4.22028
2350.83	0.493088
2351.06	2.30313
2351.29	4.26318
2351.52	-2.296
2351.75	-0.354927
2351.99	-1.3998
2352.22	-0.49839
2352.45	5.22001
2352.68	-2.42324
2352.91	3.26649
2353.15	-2.50294
2353.38	-1.58858
2353.61	-3.49747
2353.84	2.20205
2354.07	2.18094
2354.31	1.21546
2354.54	5.00991
2354.77	1.19601
2355	2.14415
2355.23	1.17556
2355.47	-4.55874
2355.7	-1.7185
2355.93	-1.73729
2356.16	1.10048
2356.39	2.03029
2356.63	0.0970078
2356.86	1.01401
2357.09	2.8849
2357.32	3.81064
2357.55	3.78635
2357.79	-2.89328
2358.02	-1.96549
2358.25	2.76387
2358.48	-0.109856
2358.71	-2.98217
2358.94	-0.158287
2359.18	-3.98118
2359.41	0.746861
2359.64	1.67501
2359.87	-0.249352
2360.1	-1.2258
2360.33	0.644608
2360.57	-0.334572
2360.8	4.38051
2361.03	-3.24106
2361.26	-5.16813
2361.49	-5.19841
2361.72	2.35573
2361.96	1.37481
2362.19	2.28909
2362.42	3.20151
2362.65	1.27269
2362.88	-3.49477
2363.11	4.04726
2363.34	0.229034
2363.58	-3.58747
2363.81	-2.67053
2364.04	-0.807835
2364.27	3.89209
2364.5	-2.76184
2364.73	-2.79379
2364.97	2.84757
