#Acq. time (s)=	30
#Accumulations=	2
#Range (cm-¹)=	1200...2365
#Windows=	3
#Auto scanning=	Off
#Autofocus=	Off
#Macrospot=	Off
#AutoExposure=	Off
#Spike filter=	Multiple accum.
#Delay time (s)=	2
#Binning=	1
#Readout mode=	Signal
#DeNoise=	Off
#ICS correction=	On
#Dark correction=	Off
#Inst. Process=	Off
#Detector Gain=	Best Dynamic
#Detector ADC=	50 kHz HS
#Detector temperature (°C)=	-60.09
#Instrument=	LabRAM HR Evol
#Detector=	SIN-EM FIVIS
#Objective=	x100_VIS_LWD
#Grating=	1800 (450-850nm)
#ND Filter=	100%
#Laser=	532nm_Edge
#Hole=	100.021
#Temperature=	0
#Range=	Visible
#StageXY=	75x50mm Scan+
#StageZ=	Z motor
#X (µm)=	0
#Y (µm)=	0
#Z (µm)=	-63.9
#Full time(mm:ss)=	3:23
#Project=	21_11_26
#Sample=	BU19(2)w
#Site=	
#Title=	BU19(2)w-A-FF1-FI08-V_1800 (450-850nm)_532nm_Edge_100%_x100_VIS_LWD_H100um_30sX2
#Remark=	
#Date=	26.11.2021 16:41
#Acquired=	26.11.2021 16:41:21
#Base:Fit=	16.12.2021 16:00:56
#Base:Fit=	16.12.2021 16:08:27
#Base:Sub=	16.12.2021 16:08:29
1202.72	16.3835
1203	11.1794
1203.28	5.86475
1203.56	8.00878
1203.84	24.1209
1204.11	4.75426
1204.39	15.5092
1204.67	14.4759
1204.95	10.2226
1205.23	8.09095
1205.5	10.2416
1205.78	7.01644
1206.06	5.93569
1206.34	11.2921
1206.61	14.4986
1206.89	12.3409
1207.17	3.75512
1207.45	9.10716
1207.73	6.97064
1208	11.259
1208.28	11.2703
1208.56	2.71542
1208.84	10.2045
1209.11	6.99502
1209.39	12.3422
1209.67	5.93806
1209.95	12.3706
1210.23	2.76143
1210.5	-0.441811
1210.78	11.2969
1211.06	0.59993
1211.34	4.86252
1211.61	-4.7568
1211.89	1.63876
1212.17	6.95454
1212.45	8.00273
1212.72	-1.59841
1213	2.65462
1213.28	-1.61731
1213.56	0.509392
1213.83	4.77007
1214.11	9.02169
1214.39	0.519119
1214.67	1.59628
1214.94	1.60635
1215.22	3.74346
1215.5	1.61893
1215.78	2.68678
1216.05	-1.57094
1216.33	5.86514
1216.61	-5.86097
1216.89	-3.76012
1217.16	2.5927
1217.44	-0.615669
1217.72	1.49036
1218	7.84262
1218.27	4.64005
1218.55	0.377686
1218.83	-6.00486
1219.1	-4.95097
1219.38	-0.710976
1219.66	-1.77901
1219.94	-0.727875
1220.21	-2.8635
1220.49	-2.86701
1220.77	3.49562
1221.04	-6.05614
1221.32	2.41815
1221.6	-0.7798
1221.88	7.6841
1222.15	7.6558
1222.43	-6.15336
1222.71	-3.01366
1222.98	5.4113
1223.26	2.1932
1223.54	-1.02064
1223.81	-7.3999
1224.09	-3.20425
1224.37	0.987923
1224.65	-1.15009
1224.92	1.99541
1225.2	0.921715
1225.48	4.07848
1225.76	-1.19794
1226.03	-7.53299
1226.31	0.915154
1226.59	-12.8247
1226.86	-3.33622
1227.14	-0.192833
1227.42	0.839645
1227.69	2.89896
1227.97	3.86519
1228.25	0.645714
1228.52	-1.51485
1228.8	-1.59818
1229.08	2.5359
1229.35	8.82265
1229.63	-4.66814
1229.91	-7.69105
1230.18	-1.44156
1230.46	1.63485
1230.74	-2.61864
1231.01	-3.67625
1231.29	-1.62723
1231.57	4.51396
1231.84	-3.8908
1232.12	-4.95628
1232.4	6.58649
1232.67	2.36019
1232.95	3.3952
1233.23	-2.92672
1233.5	-6.0994
1233.78	1.23776
1234.06	-0.873154
1234.33	-1.93111
1234.61	12.7719
1234.89	-1.9414
1235.16	3.31167
1235.44	-0.900986
1235.71	-4.06237
1235.99	1.18845
1236.27	1.17989
1236.54	4.3176
1236.82	1.13825
1237.1	-2.04291
1237.37	-3.12583
1237.65	-1.06556
1237.93	6.24233
1238.2	-2.2016
1238.48	3.0023
1238.76	5.05542
1239.03	-1.27567
1239.31	1.84083
1239.58	-8.67001
1239.86	3.88648
1240.14	-1.37593
1240.41	2.79842
1240.69	5.92673
1240.97	0.672058
1241.24	4.85337
1241.52	3.79231
1241.79	4.81717
1242.07	3.73811
1242.35	7.90441
1242.62	1.60252
1242.9	-3.64838
1243.18	-3.65369
1243.45	5.77493
1243.73	-0.531647
1244	0.501579
1244.28	2.58772
1244.56	3.61931
1244.83	0.453468
1245.11	0.430016
1245.39	5.63694
1245.66	10.8385
1245.94	1.36631
1246.21	6.55898
1246.49	-0.796143
1246.76	2.32249
1247.04	8.58803
1247.32	4.38425
1247.59	2.26884
1247.87	11.6716
1248.14	5.36795
1248.42	13.6906
1248.7	9.47424
1248.97	3.18014
1249.25	7.35415
1249.52	1.07019
1249.8	2.0963
1250.08	8.35456
1250.35	7.29544
1250.63	-0.0564957
1250.9	5.13616
1251.18	-2.21271
1251.45	5.07312
1251.73	6.08949
1252.01	11.2842
1252.28	3.94342
1252.56	14.3571
1252.83	2.84222
1253.11	9.07463
1253.39	-2.43477
1253.66	9.02345
1253.94	12.1417
1254.21	18.4059
1254.49	0.666161
1254.76	13.2004
1255.04	13.1963
1255.31	5.87506
1255.59	7.9585
1255.87	21.5223
1256.14	16.2849
1256.42	17.3222
1256.69	13.1414
1256.97	22.5444
1257.24	13.1376
1257.52	21.4781
1257.79	38.1628
1258.07	37.0978
1258.35	34.9905
1258.62	41.2355
1258.9	29.7285
1259.17	31.7807
1259.45	33.8559
1259.72	25.5093
1260	28.6476
1260.27	37.0386
1260.55	47.4413
1260.82	48.4462
1261.1	52.5658
1261.37	66.0878
1261.65	66.0564
1261.92	72.3285
1262.2	84.9858
1262.48	99.831
1262.75	110.398
1263.02	123.659
1263.3	145.316
1263.58	143.121
1263.85	136.027
1264.13	122.606
1264.4	103.971
1264.68	91.5043
1264.95	76.7561
1265.23	65.2159
1265.5	53.7141
1265.78	61.0132
1266.05	34.8616
1266.33	28.5875
1266.6	30.6811
1266.88	47.4133
1267.15	35.9355
1267.43	31.7768
1267.7	32.8493
1267.98	22.4181
1268.25	31.867
1268.53	26.6795
1268.8	26.7159
1269.08	26.7348
1269.35	21.512
1269.63	37.2402
1269.9	30.9456
1270.18	30.9203
1270.45	26.6971
1270.73	34.0027
1271	26.6481
1271.28	31.8624
1271.55	28.7158
1271.83	26.6092
1272.1	22.4323
1272.38	25.5968
1272.65	26.6747
1272.93	30.9063
1273.2	24.651
1273.47	28.8719
1273.75	35.1922
1274.03	31.0311
1274.3	35.258
1274.57	37.3778
1274.85	26.8971
1275.12	33.1897
1275.4	34.2428
1275.67	34.2594
1275.95	34.2823
1276.22	38.5044
1276.5	34.339
1276.77	34.3649
1277.05	46.9927
1277.32	38.6146
1277.6	47.0531
1277.87	52.3434
1278.14	58.6871
1278.42	51.3632
1278.69	65.0622
1278.97	74.5757
1279.24	87.2302
1279.52	77.7972
1279.79	101.991
1280.07	117.763
1280.34	142.99
1280.61	187.162
1280.89	232.418
1281.16	337.646
1281.44	433.506
1281.71	586.286
1281.99	794.807
1282.26	1096.9
1282.53	1383.35
1282.81	1740.44
1283.08	2029.63
1283.36	2272.7
1283.63	2390.5
1283.91	2250.9
1284.18	1867.31
1284.45	1442.56
1284.73	991.64
1285	674.674
1285.28	451.288
1285.55	306.756
1285.83	246.626
1286.1	181.369
1286.37	154.06
1286.65	115.109
1286.92	114.035
1287.2	86.6731
1287.47	77.2032
1287.75	75.091
1288.02	75.0801
1288.29	60.3469
1288.57	43.5245
1288.84	49.8591
1289.12	42.5185
1289.39	48.8698
1289.66	40.4881
1289.94	42.6341
1290.21	43.7311
1290.49	38.5038
1290.76	38.5223
1291.03	27.9956
1291.31	32.2221
1291.58	31.1868
1291.86	20.6735
1292.13	31.2217
1292.4	20.7114
1292.68	34.4309
1292.95	29.1795
1293.22	16.5549
1293.5	26.06
1293.77	20.8483
1294.05	17.7496
1294.32	19.9217
1294.59	24.1741
1294.87	10.4883
1295.14	23.1589
1295.42	17.9274
1295.69	21.1572
1295.96	21.2354
1296.24	12.8795
1296.51	15.0556
1296.79	16.1473
1297.06	17.2318
1297.33	11.9623
1297.61	17.256
1297.88	15.1494
1298.15	17.267
1298.43	16.2122
1298.7	13.0817
1298.97	15.2134
1299.25	17.337
1299.52	6.79411
1299.79	5.75255
1300.07	17.3908
1300.34	13.2128
1300.62	6.91564
1300.89	15.3938
1301.16	14.3627
1301.44	4.88628
1301.71	11.2552
1301.98	10.2439
1302.25	8.17521
1302.53	11.3819
1302.8	12.4713
1303.08	9.33214
1303.35	11.47
1303.62	11.4915
1303.9	16.787
1304.17	2.03252
1304.44	9.45814
1304.72	12.6585
1304.99	1.07449
1305.26	2.15366
1305.54	6.39519
1305.81	9.57587
1306.08	4.31416
1306.35	6.43783
1306.63	11.729
1306.9	9.6462
1307.18	3.35298
1307.45	9.72308
1307.72	10.8154
1308	-3.91655
1308.27	2.44667
1308.54	3.54167
1308.81	4.62753
1309.09	3.6134
1309.36	11.0474
1309.63	6.87608
1309.91	3.75937
1310.18	11.1918
1310.45	0.673622
1310.73	10.2037
1311	3.91027
1311.27	2.89651
1311.55	-1.28214
1311.82	0.87072
1312.09	7.24892
1312.37	2.02416
1312.64	2.07491
1312.91	0.00797272
1313.18	5.32405
1313.46	4.29541
1313.73	4.33276
1314	8.58855
1314.28	-1.93219
1314.55	2.3306
1314.82	0.26545
1315.09	1.37003
1315.37	-2.80209
1315.64	1.47251
1315.91	2.58078
1316.18	3.68948
1316.46	2.67233
1316.73	-3.62652
1317	0.637611
1317.28	1.73464
1317.55	1.77811
1317.82	-0.279732
1318.09	-5.51028
1318.37	-1.236
1318.64	5.14975
1318.91	0.970131
1319.18	-0.0414581
1319.46	-2.11145
1319.73	-1.013
1320	4.31131
1320.28	-0.919792
1320.55	1.23966
1320.82	-1.88792
1321.09	4.48503
1321.37	-2.87831
1321.64	2.42633
1321.91	-1.77303
1322.18	2.48175
1322.46	3.56186
1322.73	-5.89445
1323	-5.85661
1323.27	6.83476
1323.55	2.64979
1323.82	-3.61964
1324.09	-2.51386
1324.36	-7.73624
1324.64	6.01792
1324.91	3.9591
1325.18	-0.211861
1325.45	1.95134
1325.73	-0.127274
1326	-4.32606
1326.27	-5.3696
1326.54	3.05109
1326.81	-2.18189
1327.09	-2.13708
1327.36	3.19922
1327.63	3.30065
1327.9	2.32567
1328.18	-0.758011
1328.45	-0.678574
1328.72	-6.92652
1328.99	1.58632
1329.27	-0.465012
1329.54	-7.80678
1329.81	5.96802
1330.08	0.741783
1330.35	-6.59601
1330.63	6.10548
1330.9	1.92526
1331.17	0.906006
1331.44	4.09914
1331.71	-3.25264
1331.99	5.19578
1332.26	6.27522
1332.53	6.30694
1332.8	7.38912
1333.07	4.26003
1333.35	4.2872
1333.62	0.111885
1333.89	6.44935
1334.16	2.27932
1334.43	1.26319
1334.71	0.249161
1334.98	0.286652
1335.25	1.37622
1335.52	4.56535
1335.79	2.50832
1336.07	5.69777
1336.34	5.7411
1336.61	1.59119
1336.88	-1.50789
1337.15	4.83038
1337.43	4.87961
1337.7	2.8335
1337.97	4.97818
1338.24	7.11214
1338.51	-0.181763
1338.78	-0.134941
1339.06	2.00501
1339.33	-2.1339
1339.6	3.15708
1339.87	0.0763092
1340.14	2.23257
1340.42	3.33979
1340.69	-2.88264
1340.96	1.36707
1341.23	5.61311
1341.5	4.62107
1341.77	2.5801
1342.04	-0.510315
1342.32	7.91229
1342.59	9.00148
1342.86	10.0859
1343.13	1.75541
1343.4	5.98864
1343.67	12.3177
1343.95	1.91619
1344.22	1.97539
1344.49	7.26597
1344.76	1.05092
1345.03	1.10456
1345.3	1.15319
1345.58	0.152596
1345.85	11.6863
1346.12	9.63683
1346.39	6.53732
1346.66	1.34062
1346.93	3.46596
1347.2	2.4618
1347.47	8.75814
1347.75	6.71237
1348.02	1.54742
1348.29	-0.484879
1348.56	4.78191
1348.83	-4.54133
1349.1	4.88841
1349.37	10.146
1349.65	9.15084
1349.92	8.15715
1350.19	9.24665
1350.46	6.17192
1350.73	3.0979
1351	7.30522
1351.27	5.26781
1351.54	5.31839
1351.81	11.6017
1352.09	8.53884
1352.36	3.40131
1352.63	5.5526
1352.9	5.63166
1353.17	6.75794
1353.44	3.71118
1353.71	13.2094
1353.98	1.88106
1354.25	15.4187
1354.53	18.4772
1354.8	5.98531
1355.07	10.2135
1355.34	13.4012
1355.61	9.28162
1355.88	7.25437
1356.15	11.4996
1356.42	8.45293
1356.69	11.6172
1356.96	12.7123
1357.24	13.8084
1357.51	8.67227
1357.78	9.76521
1358.05	18.1234
1358.32	19.2114
1358.59	13.0334
1358.86	12.0469
1359.13	21.4328
1359.4	11.108
1359.67	12.1989
1359.94	19.5126
1360.22	21.6289
1360.49	10.2673
1360.76	24.8168
1361.03	14.5055
1361.3	20.7794
1361.57	18.7718
1361.84	20.9055
1362.11	14.7515
1362.38	23.0923
1362.65	21.0769
1362.92	22.1693
1363.19	20.1612
1363.46	29.5513
1363.73	33.7759
1364	26.6039
1364.28	30.8247
1364.55	31.9254
1364.82	30.949
1365.09	32.0404
1365.36	33.1245
1365.63	24.8863
1365.9	34.2464
1366.17	17.733
1366.44	20.8843
1366.71	20.9298
1366.98	23.0392
1367.25	24.1087
1367.52	32.4294
1367.79	39.7202
1368.06	35.666
1368.33	44.0093
1368.6	68.8915
1368.87	86.5404
1369.15	143.477
1369.41	125.984
1369.68	95.0434
1369.95	68.2102
1370.23	43.4514
1370.5	35.2365
1370.77	40.4443
1371.04	36.3643
1371.31	32.2803
1371.58	29.2219
1371.85	31.322
1372.12	35.4793
1372.39	39.6347
1372.66	37.6028
1372.93	29.3948
1373.2	37.6924
1373.47	44.9606
1373.74	39.8605
1374.01	40.9471
1374.28	38.9443
1374.55	49.307
1374.82	43.185
1375.09	42.2134
1375.36	44.327
1375.63	38.2172
1375.9	42.4175
1376.17	48.663
1376.44	55.9479
1376.71	52.8945
1376.98	54.9926
1377.25	57.0789
1377.52	44.7486
1377.79	48.9453
1378.06	54.1874
1378.33	57.3897
1378.6	58.5459
1378.87	65.8946
1379.14	61.8588
1379.41	55.7352
1379.68	66.0951
1379.95	67.1744
1380.22	68.2446
1380.49	62.0753
1380.76	75.4225
1381.03	75.4263
1381.3	88.8109
1381.57	85.8164
1381.84	100.241
1382.11	99.2052
1382.38	111.52
1382.65	102.273
1382.92	131.022
1383.19	143.329
1383.46	143.338
1383.73	182.316
1384	187.466
1384.27	229.531
1384.54	277.794
1384.81	347.614
1385.08	440.052
1385.34	594.127
1385.61	796.613
1385.88	1147.96
1386.15	1789.99
1386.42	2622.05
1386.69	3823.3
1386.96	4914.57
1387.23	5398.36
1387.5	4796.78
1387.77	3485.55
1388.04	2236.12
1388.31	1299.7
1388.58	826.571
1388.85	529.787
1389.12	399.233
1389.39	292.809
1389.66	243.618
1389.93	194.428
1390.2	175.931
1390.46	146.066
1390.73	133.753
1391	121.508
1391.27	103.051
1391.54	99.0028
1391.81	99.0541
1392.08	93.9611
1392.35	89.8898
1392.62	63.2968
1392.89	71.5327
1393.16	68.509
1393.43	71.6304
1393.7	69.6356
1393.97	63.5485
1394.23	53.3698
1394.5	62.6368
1394.77	57.5783
1395.04	57.6384
1395.31	56.6926
1395.58	55.7532
1395.85	55.8313
1396.12	50.7834
1396.39	53.9157
1396.66	59.0883
1396.93	48.9051
1397.2	44.8629
1397.46	42.8616
1397.73	45.9764
1398	32.7344
1398.27	37.9114
1398.54	50.2568
1398.81	45.2187
1399.08	39.1513
1399.35	46.3824
1399.62	40.3242
1399.89	43.4688
1400.16	45.5894
1400.42	34.3936
1400.69	44.7065
1400.96	44.7958
1401.23	43.8475
1401.5	42.883
1401.77	52.1758
1402.04	39.9485
1402.31	42.0935
1402.58	46.3128
1402.84	41.31
1403.11	48.5994
1403.38	52.8018
1403.65	52.8812
1403.92	46.7856
1404.19	47.8535
1404.46	51.9616
1404.73	62.3006
1404.99	53.1192
1405.26	62.4013
1405.53	58.3404
1405.8	64.5344
1406.07	79.955
1406.34	101.523
1406.61	93.3687
1406.87	104.693
1407.14	132.437
1407.41	148.914
1407.68	167.446
1407.95	206.48
1408.22	232.19
1408.49	263.029
1408.76	276.44
1409.02	249.864
1409.29	231.493
1409.56	186.449
1409.83	143.448
1410.1	117.875
1410.37	105.627
1410.63	77.965
1410.9	60.5589
1411.17	53.409
1411.44	49.3454
1411.71	43.2406
1411.98	41.239
1412.25	37.1984
1412.51	37.2713
1412.78	32.2333
1413.05	28.2449
1413.32	23.2692
1413.59	24.4038
1413.86	25.43
1414.12	27.4363
1414.39	25.4627
1414.66	21.4704
1414.93	23.618
1415.2	32.912
1415.47	26.8142
1415.73	22.7672
1416	25.9085
1416.27	18.7866
1416.54	18.8518
1416.81	16.8638
1417.07	18.9838
1417.34	18.0239
1417.61	16.0359
1417.88	20.2117
1418.15	15.1362
1418.42	15.1959
1418.68	18.3394
1418.95	20.4563
1419.22	13.3211
1419.49	17.4912
1419.76	14.4583
1420.02	22.723
1420.29	15.5747
1420.56	16.6466
1420.83	19.7701
1421.1	22.8918
1421.36	19.8555
1421.63	13.748
1421.9	16.8877
1422.17	17.9893
1422.44	17.0425
1422.7	13.0124
1422.97	21.3275
1423.24	19.3886
1423.51	18.4779
1423.77	19.3957
1424.04	17.2531
1424.31	13.2254
1424.58	18.3416
1424.85	15.324
1425.11	20.5226
1425.38	20.6279
1425.65	21.718
1425.92	19.7121
1426.19	18.7655
1426.45	16.764
1426.72	14.7553
1426.99	19.9199
1427.26	7.65379
1427.52	9.74065
1427.79	9.77048
1428.06	12.8769
1428.33	6.77744
1428.59	15.0185
1428.86	10.9776
1429.13	14.1071
1429.4	14.166
1429.67	14.2273
1429.93	9.16893
1430.2	5.13659
1430.47	7.25444
1430.74	8.34465
1431	9.44101
1431.27	12.5974
1431.54	18.8286
1431.81	9.65601
1432.07	10.7349
1432.34	9.75018
1432.61	9.7882
1432.87	10.857
1433.14	4.73772
1433.41	5.7942
1433.68	9.92111
1433.95	4.82787
1434.21	9.98626
1434.48	6.95958
1434.75	12.1595
1435.01	7.10013
1435.28	2.03011
1435.55	5.15536
1435.82	11.353
1436.08	6.27771
1436.35	7.34924
1436.62	9.44472
1436.89	7.44087
1437.15	6.46103
1437.42	9.57901
1437.69	6.5547
1437.95	5.57402
1438.22	7.66901
1438.49	6.69744
1438.76	1.63355
1439.02	3.73619
1439.29	10.9585
1439.56	5.88793
1439.82	6.96989
1440.09	4.98161
1440.36	7.09559
1440.63	7.15094
1440.89	10.2792
1441.16	4.17563
1441.43	4.22663
1441.69	3.24508
1441.96	6.36043
1442.23	12.5545
1442.49	4.41119
1442.76	8.56203
1443.03	9.64626
1443.3	8.6606
1443.56	9.7236
1443.83	3.61095
1444.1	4.67765
1444.36	7.7976
1444.63	8.87302
1444.9	7.91015
1445.16	2.84136
1445.43	3.92962
1445.7	7.04951
1445.97	-2.1427
1446.23	5.07972
1446.5	-0.00741577
1446.77	2.0857
1447.03	6.22946
1447.3	7.29597
1447.57	4.25962
1447.83	-5.95475
1448.1	0.236931
1448.37	6.43234
1448.63	5.46114
1448.9	4.49173
1449.17	8.64184
1449.43	5.60826
1449.7	2.57137
1449.97	6.71065
1450.23	5.72036
1450.5	7.80566
1450.77	3.74429
1451.03	6.85889
1451.3	-0.276421
1451.57	4.88675
1451.83	6.97399
1452.1	8.0365
1452.37	-5.24416
1452.63	5.04174
1452.9	5.08487
1453.17	4.10508
1453.43	-0.970272
1453.7	4.2001
1453.97	3.21758
1454.23	4.28065
1454.5	-1.82877
1454.77	-3.83648
1455.03	-1.74563
1455.3	2.39307
1455.56	1.40631
1455.83	2.47292
1456.1	5.59691
1456.36	3.59261
1456.63	-2.51661
1456.9	3.66935
1457.16	1.65186
1457.43	4.75807
1457.7	-2.37671
1457.96	3.8068
1458.23	-0.252953
1458.49	1.83569
1458.76	-0.172493
1459.03	2.94284
1459.29	-2.13802
1459.56	-4.1466
1459.82	4.08998
1460.09	-3.045
1460.36	1.08893
1460.62	2.14861
1460.89	6.28076
1461.16	0.168026
1461.42	-0.823822
1461.69	0.232464
1461.95	6.40691
1462.22	-2.77708
1462.49	6.46434
1462.75	2.3983
1463.02	2.42564
1463.28	2.452
1463.55	1.45518
1463.82	-1.58487
1464.08	0.495174
1464.35	-4.56758
1464.61	-0.419884
1464.88	2.70292
1465.15	0.713539
1465.41	2.76153
1465.68	2.71188
1465.94	-3.41421
1466.21	0.699425
1466.48	-1.2927
1466.74	-8.40629
1467.01	-3.28542
1467.27	-2.23558
1467.54	3.92497
1467.8	-2.16422
1468.07	-4.17244
1468.34	-5.1596
1468.6	-3.08568
1468.87	4.08802
1469.13	1.05958
1469.4	-2.99029
1469.67	1.11775
1469.93	-1.91572
1470.2	0.146801
1470.46	6.28697
1470.73	1.21854
1470.99	1.24662
1471.26	0.257687
1471.53	-0.733955
1471.79	-1.72773
1472.06	1.35441
1472.32	0.36557
1472.59	-0.621811
1472.85	-1.60881
1473.12	-1.57779
1473.39	-0.530674
1473.65	-3.55887
1473.92	0.538425
1474.18	0.564896
1474.45	-1.44193
1474.71	0.624725
1474.98	-2.39318
1475.24	-1.34142
1475.51	2.76154
1475.78	-2.29791
1476.04	-1.25307
1476.31	-2.24554
1476.57	-0.18399
1476.84	-2.19207
1477.1	0.883457
1477.37	0.906464
1477.63	2.96687
1477.9	0.961254
1478.16	3.02383
1478.43	-2.03591
1478.69	-0.997673
1478.96	-1.99085
1479.22	-1.96759
1479.49	0.0869713
1479.76	4.17189
1480.02	-4.95123
1480.29	-1.88373
1480.55	-1.86968
1480.82	-3.88273
1481.08	3.24107
1481.35	-1.80799
1481.61	3.28551
1481.88	-0.74049
1482.14	-1.72064
1482.41	-4.73017
1482.67	0.380795
1482.94	1.43028
1483.2	3.48808
1483.47	1.49015
1483.73	1.5202
1484	1.54734
1484.26	-3.50463
1484.53	-6.53863
1484.79	-0.445011
1485.06	-0.463017
1485.32	-0.492855
1485.59	2.54795
1485.85	3.55049
1486.12	-0.370533
1486.38	-3.37307
1486.65	-3.33268
1486.91	1.7157
1487.18	-1.27625
1487.44	-2.25806
1487.71	3.83409
1487.97	-3.24155
1488.24	1.84175
1488.5	2.87214
1488.77	-5.21174
1489.03	-4.18384
1489.3	-3.15441
1489.56	1.92482
1489.83	-2.10157
1490.09	2.97821
1490.36	-1.04472
1490.62	-0.00975037
1490.89	5.06649
1491.15	1.03556
1491.42	-0.971519
1491.68	1.07013
1491.95	-1.94146
1492.21	1.11459
1492.48	3.16163
1492.74	2.1721
1493	-4.88426
1493.27	0.191868
1493.53	3.24719
1493.8	1.24481
1494.06	2.27638
1494.33	-1.74418
1494.59	-0.708534
1494.86	-0.683113
1495.12	2.3699
1495.39	1.37389
1495.65	1.38307
1495.92	-2.65131
1496.18	1.39846
1496.45	1.41198
1496.71	0.417667
1496.97	-1.58525
1497.24	0.448879
1497.5	-0.539932
1497.77	0.489697
1498.03	-2.51973
1498.3	2.54569
1498.56	-2.47958
1498.82	-4.47693
1499.09	-0.418503
1499.35	-0.396729
1499.62	1.64458
1499.88	-1.36038
1500.15	-1.3373
1500.41	-0.306702
1500.68	-0.287552
1500.94	0.739975
1501.2	-0.25172
1501.47	0.772476
1501.73	-1.23499
1502	-2.22771
1502.26	4.85387
1502.52	-1.18393
1502.79	5.8939
1503.05	-0.150257
1503.32	3.89447
1503.58	-1.1349
1503.85	5.93412
1504.11	2.92706
1504.37	0.932323
1504.64	1.96045
1504.9	1.97834
1505.17	5.01923
1505.43	-2.02615
1505.7	1.00981
1505.96	4.03892
1506.22	3.03276
1506.49	5.06172
1506.75	-2.98214
1507.02	-0.948753
1507.28	0.0811615
1507.54	0.0993538
1507.81	1.12537
1508.07	2.14912
1508.34	2.16241
1508.6	1.16872
1508.86	-3.85237
1509.13	6.24118
1509.39	-0.795792
1509.66	-1.78823
1509.92	1.25018
1510.18	1.27021
1510.45	1.28836
1510.71	2.30344
1510.98	6.34021
1511.24	-1.7131
1511.5	-0.701855
1511.77	-0.702789
1512.03	-2.7207
1512.29	2.30195
1512.56	1.29073
1512.82	-3.73501
1513.08	1.29148
1513.35	0.292263
1513.61	4.31435
1513.88	2.31712
1514.14	1.337
1514.4	-0.641994
1514.67	2.38924
1514.93	0.389278
1515.2	4.41057
1515.46	1.40038
1515.72	-0.604053
1515.99	2.40755
1516.25	4.41428
1516.51	1.40945
1516.78	-1.58993
1517.04	-1.58011
1517.3	3.44345
1517.57	0.447186
1517.83	2.46575
1518.09	4.48681
1518.36	-0.507145
1518.62	0.510212
1518.88	0.525402
1519.15	2.54613
1519.41	3.56505
1519.67	0.570709
1519.94	3.59452
1520.2	0.59544
1520.47	-0.399693
1520.73	-0.390823
1520.99	-1.38026
1521.26	-1.36502
1521.52	-2.35366
1521.78	-2.34109
1522.05	1.68206
1522.31	-3.32705
1522.57	2.69896
1522.84	-3.31356
1523.1	1.70819
1523.36	-1.2963
1523.62	0.707798
1523.89	-1.30184
1524.15	-0.299706
1524.41	-1.2993
1524.68	-1.29572
1524.94	1.7123
1525.2	4.73138
1525.47	-1.26535
1525.73	-6.26163
1525.99	0.76466
1526.26	-2.22369
1526.52	4.81064
1526.78	-0.182255
1527.05	-0.169685
1527.31	-0.161198
1527.57	-3.16423
1527.84	1.85353
1528.1	-2.14922
1528.36	-0.139202
1528.63	-1.1368
1528.89	1.87332
1529.15	-0.125004
1529.41	1.885
1529.68	-0.110363
1529.94	-0.104446
1530.2	-3.10649
1530.47	1.90715
1530.73	3.92214
1530.99	3.93919
1531.25	-3.05701
1531.52	3.9708
1531.78	0.973557
1532.04	-0.023159
1532.31	-7.02842
1532.57	1.99199
1532.83	-1.00153
1533.09	1.0208
1533.36	4.05056
1533.62	4.07149
1533.88	0.0726585
1534.15	-4.93275
1534.41	0.0899162
1534.67	-1.9114
1534.94	0.0987892
1535.2	-1.90428
1535.46	-1.90071
1535.72	1.10693
1535.99	-2.915
1536.25	-3.92123
1536.51	-5.92583
1536.77	-1.92566
1537.04	-3.93492
1537.3	1.06283
1537.56	-1.93784
1537.82	-1.94027
1538.09	4.06775
1538.35	1.06485
1538.61	-2.94065
1538.87	2.05975
1539.14	-2.93615
1539.4	-0.920841
1539.66	-0.893394
1539.92	0.141239
1540.19	6.1762
1540.45	3.19472
1540.71	0.211136
1540.97	0.227245
1541.24	2.24261
1541.5	4.23562
1541.76	8.24822
1542.02	-0.778683
1542.29	2.22243
1542.55	3.21863
1542.81	4.21436
1543.07	6.21143
1543.34	1.20135
1543.6	2.19681
1543.86	1.18764
1544.12	-5.82169
1544.39	1.18484
1544.65	-0.808651
1544.91	2.20468
1545.17	-1.78119
1545.43	0.232887
1545.7	-2.75114
1545.96	-3.74073
1546.22	-1.72894
1546.48	2.28606
1546.74	-2.72085
1547.01	2.2933
1547.27	2.30173
1547.53	2.3104
1547.79	4.32253
1548.06	0.309273
1548.32	4.29773
1548.58	-0.705563
1548.84	-0.70013
1549.1	8.32951
1549.37	-7.7229
1549.63	0.245949
1549.89	-2.75813
1550.15	-4.73502
1550.42	-0.691895
1550.68	2.37665
1550.94	6.43969
1551.2	-2.55547
1551.46	3.44687
1551.73	1.44559
1551.99	3.44796
1552.25	3.43733
1552.51	-0.557365
1552.77	5.48754
1553.03	4.47993
1553.3	-0.550297
1553.56	0.427433
1553.82	2.42978
1554.08	-4.59298
1554.34	5.43099
1554.61	0.407516
1554.87	0.396408
1555.13	3.39024
1555.39	-1.62208
1555.65	5.38938
1555.91	-2.62276
1556.18	2.39023
1556.44	2.3924
1556.7	6.39436
1556.96	1.3883
1557.22	-0.610928
1557.48	-1.60896
1557.75	0.396786
1558.01	-1.60744
1558.27	2.39335
1558.53	1.38042
1558.79	-4.63434
1559.06	-5.64539
1559.32	2.34852
1559.58	0.338482
1559.84	-2.66863
1560.1	1.32487
1560.36	2.31971
1560.63	2.31635
1560.89	4.31271
1561.15	2.3123
1561.41	1.31339
1561.67	-2.68063
1561.93	4.32372
1562.19	0.336823
1562.46	1.34925
1562.72	1.35019
1562.98	-2.65166
1563.24	-3.65413
1563.5	4.34857
1563.76	-0.655132
1564.02	-2.65692
1564.29	3.35773
1564.55	-3.63025
1564.81	1.37823
1565.07	2.37634
1565.33	0.352997
1565.59	2.28118
1565.85	-1.80229
1566.11	-1.84908
1566.38	-1.69674
1566.64	-0.652092
1566.9	2.3268
1567.16	-1.69598
1567.42	-2.66557
1567.68	0.367947
1567.94	-0.641727
1568.2	-2.66805
1568.47	-4.66355
1568.73	2.34009
1568.99	4.34249
1569.25	-2.66118
1569.51	-3.67453
1569.77	-3.68266
1570.03	-3.68297
1570.29	-1.68204
1570.55	-0.682453
1570.82	-1.68203
1571.08	4.31288
1571.34	-4.68401
1571.6	3.3062
1571.86	0.301403
1572.12	2.29143
1572.38	-1.70641
1572.64	2.28305
1572.9	-3.71745
1573.17	-1.72673
1573.43	-2.73135
1573.69	0.256004
1573.95	-1.74664
1574.21	1.24707
1574.47	1.25311
1574.73	3.25797
1574.99	0.27079
1575.25	0.279408
1575.51	-1.71081
1575.78	0.293297
1576.04	4.29131
1576.3	6.28542
1576.56	-2.71051
1576.82	-2.71609
1577.08	4.26313
1577.34	-1.74592
1577.6	-4.75528
1577.86	3.21358
1578.12	-0.791286
1578.38	-0.804287
1578.64	1.18096
1578.9	1.17686
1579.17	0.17778
1579.43	5.16029
1579.69	2.16811
1579.95	8.15056
1580.21	3.16987
1580.47	0.179443
1580.73	-0.818943
1580.99	5.16064
1581.25	-1.82585
1581.51	-0.836815
1581.77	1.14972
1582.03	-3.84328
1582.29	0.132629
1582.55	-0.868637
1582.81	2.11526
1583.07	2.10991
1583.33	3.10147
1583.59	4.09407
1583.85	0.106609
1584.11	-3.88329
1584.38	-0.897816
1584.64	-1.89281
1584.9	-1.89265
1585.16	-0.897335
1585.42	0.0960579
1585.68	0.0915108
1585.94	1.08417
1586.2	4.06572
1586.46	3.05758
1586.72	-1.93255
1586.98	4.03007
1587.24	0.0412292
1587.5	-2.95061
1587.76	2.01859
1588.02	-0.970749
1588.28	0.0218658
1588.54	4.99745
1588.8	4.00472
1589.06	-0.967915
1589.32	4.01101
1589.58	2.0228
1589.84	1.02833
1590.1	-3.95114
1590.36	5.00671
1590.62	-1.96247
1590.88	-3.95255
1591.14	-1.96023
1591.4	-0.968204
1591.66	-2.96304
1591.92	4.0024
1592.18	-1.97915
1592.44	3.98267
1592.7	1.97585
1592.96	-4.0063
1593.22	-2.025
1593.48	-5.02473
1593.74	-0.0709724
1594	2.89085
1594.26	-3.08316
1594.52	0.881977
1594.78	-4.08722
1595.04	0.880722
1595.3	-4.08205
1595.56	-8.05514
1595.82	2.87243
1596.08	-1.12263
1596.34	4.83281
1596.6	2.84322
1596.86	-3.11887
1597.12	-5.10715
1597.38	-2.12791
1597.64	0.85247
1597.9	-3.12125
1598.16	1.84209
1598.42	-0.151733
1598.68	-5.12788
1598.94	-0.175568
1599.2	1.79716
1599.46	-1.19122
1599.72	-1.20086
1599.98	1.76603
1600.24	-3.20421
1600.5	2.73775
1600.76	5.70137
1601.02	3.70428
1601.28	-0.276699
1601.54	3.6703
1601.8	0.681763
1602.06	5.61872
1602.32	2.6361
1602.58	-1.33449
1602.84	-0.356369
1603.1	-3.33715
1603.36	-1.37015
1603.62	7.52005
1603.88	0.589008
1604.14	-1.39515
1604.4	0.578045
1604.66	-0.413395
1604.92	-0.41563
1605.17	1.55897
1605.43	1.55648
1605.69	4.52109
1605.95	0.565636
1606.21	2.5449
1606.47	1.55781
1606.73	0.570427
1606.99	-1.40757
1607.25	2.51618
1607.51	-3.39088
1607.77	1.47981
1608.03	4.45047
1608.29	1.56819
1608.55	-4.27164
1608.81	4.20839
1609.07	0.700779
1609.32	-2.97682
1609.58	2.38143
1609.84	1.03611
1610.1	1.46262
1610.36	0.331005
1610.62	1.37904
1610.88	2.22472
1611.14	2.30689
1611.4	-0.323059
1611.66	-3.66173
1611.92	1.97332
1612.18	0.251438
1612.44	-1.44495
1612.69	-2.20517
1612.95	-1.40565
1613.21	1.98109
1613.47	-0.692623
1613.73	4.6388
1613.99	-0.764095
1614.25	-1.00431
1614.51	-1.05397
1614.77	1.63568
1615.03	1.85859
1615.29	-0.771229
1615.54	-3.6526
1615.8	1.55299
1616.06	-1.88564
1616.32	-0.418343
1616.58	-0.346191
1616.84	2.9505
1617.1	2.31439
1617.36	-0.74247
1617.62	1.17978
1617.88	0.00113297
1618.13	-3.85309
1618.39	-0.449608
1618.65	2.58759
1618.91	2.81746
1619.17	2.33004
1619.43	2.69448
1619.69	1.80394
1619.95	-1.1413
1620.2	-0.946751
1620.46	3.34119
1620.72	-0.65958
1620.98	0.0112038
1621.24	0.969219
1621.5	-1.02684
1621.76	-1.0279
1622.02	1.5043
1622.27	1.33156
1622.53	-0.310463
1622.79	-0.36845
1623.05	1.31787
1623.31	-0.406288
1623.57	-2.08583
1623.83	-0.150131
1624.09	1.60613
1624.34	-2.39398
1624.6	-1.70656
1624.86	1.37431
1625.12	2.96011
1625.38	-0.153473
1625.64	0.331287
1625.9	-0.528919
1626.15	-1.71784
1626.41	0.594994
1626.67	0.411388
1626.93	-0.821983
1627.19	-0.00340271
1627.45	1.087
1627.7	1.89989
1627.96	-0.125423
1628.22	-0.486267
1628.48	0.430233
1628.74	0.440922
1629	1.12249
1629.26	2.00618
1629.51	2.23458
1629.77	0.50703
1630.03	3.56514
1630.29	1.16742
1630.55	-0.486481
1630.81	-1.16872
1631.06	-0.101414
1631.32	-0.244366
1631.53	-3.31309
1631.79	2.6
1632.05	1.61914
1632.31	-3.30475
1632.57	-2.32412
1632.84	-0.345772
1633.1	2.62905
1633.36	6.5551
1633.62	1.60211
1633.88	3.56526
1634.14	3.5681
1634.4	3.57176
1634.66	-1.35736
1634.93	0.612019
1635.19	5.53693
1635.45	3.56101
1635.71	-1.3724
1635.97	3.54924
1636.23	4.5275
1636.49	-1.3924
1636.75	-5.34056
1637.02	3.51753
1637.28	2.5231
1637.54	3.49759
1637.8	2.50628
1638.06	4.47124
1638.32	4.46458
1638.58	-0.46463
1638.84	3.46706
1639.1	0.51173
1639.37	-2.44398
1639.63	-3.43145
1639.89	2.47163
1640.15	-0.484734
1640.41	1.4798
1640.67	1.47831
1640.93	-0.48592
1641.19	0.501179
1641.46	3.45417
1641.72	0.494713
1641.98	2.45698
1642.24	2.45151
1642.5	-0.506496
1642.76	-2.4795
1643.02	1.45374
1643.28	-0.51881
1643.54	5.38352
1643.8	0.458519
1644.06	-0.531345
1644.33	3.39837
1644.59	1.42152
1644.85	3.38144
1645.11	2.39386
1645.37	2.39457
1645.63	2.39756
1645.89	2.39823
1646.15	2.3964
1646.41	0.422001
1646.67	1.39889
1646.93	1.39238
1647.19	-2.54742
1647.46	4.33193
1647.72	0.390926
1647.98	-2.56515
1648.24	1.36544
1648.5	1.36472
1648.76	0.385754
1649.02	-3.54431
1649.28	0.408115
1649.54	-0.570999
1649.8	4.34488
1650.06	5.32226
1650.32	6.30418
1650.58	2.37682
1650.85	-0.570084
1651.11	-1.55025
1651.37	-0.560047
1651.63	-1.54261
1651.89	1.41371
1652.15	-1.54446
1652.41	0.424541
1652.67	-2.53239
1652.93	1.40371
1653.19	-1.55891
1653.45	4.34859
1653.71	-1.56465
1653.97	-0.579559
1654.23	-3.53388
1654.49	3.36478
1654.75	-1.56293
1655.01	0.408924
1655.27	-1.55941
1655.53	6.33352
1655.8	0.427429
1656.06	-0.547073
1656.32	4.39437
1656.57	2.42537
1656.84	-2.50811
1657.1	4.40179
1657.36	-0.536594
1657.62	5.38062
1657.88	3.40036
1658.14	2.40916
1658.4	2.40454
1658.66	5.35862
1658.92	-2.54143
1659.18	3.37019
1659.44	-0.58255
1659.7	-0.589588
1659.96	-1.58266
1660.22	1.36516
1660.48	0.38113
1660.74	-2.57327
1661	-3.5553
1661.26	1.38102
1661.52	6.31959
1661.78	-0.579552
1662.04	1.3959
1662.3	0.410736
1662.56	5.30413
1662.82	0.445827
1663.08	1.4737
1663.34	2.43898
1663.6	2.43313
1663.86	-0.542442
1664.12	-3.5789
1664.38	-2.55661
1664.64	0.412731
1664.9	-0.572342
1665.16	-0.55468
1665.42	2.416
1665.68	1.3841
1665.94	2.33215
1666.2	-1.5191
1666.46	3.43203
1666.72	1.44914
1666.98	-0.581955
1667.24	-1.68383
1667.5	2.37149
1667.76	1.37475
1668.02	-1.59319
1668.28	1.36228
1668.54	-1.60489
1668.8	0.368275
1669.06	1.37188
1669.32	1.39348
1669.58	-1.56617
1669.84	-3.54165
1670.1	2.38558
1670.36	3.36833
1670.62	-1.57085
1670.88	0.423832
1671.14	2.41315
1671.4	1.41987
1671.66	0.427731
1671.92	-8.46966
1672.18	-0.561924
1672.44	7.34858
1672.69	0.429932
1672.95	-2.53635
1673.21	-0.560055
1673.47	1.41757
1673.73	1.41876
1673.99	3.39831
1674.25	-1.54163
1674.51	-1.5371
1674.77	-5.48917
1675.03	2.42802
1675.29	0.456619
1675.55	4.42029
1675.81	1.45486
1676.07	-2.50346
1676.33	3.43338
1676.59	-2.50344
1676.85	-0.522442
1677.11	-0.521652
1677.37	-1.51221
1677.63	-0.524834
1677.89	0.461128
1678.14	0.455456
1678.4	-0.541477
1678.66	-0.549812
1678.92	-3.52339
1679.18	-0.562122
1679.44	-1.55544
1679.7	-0.570076
1679.96	-9.46992
1680.22	-1.56624
1680.48	0.407467
1680.74	0.403477
1681	-0.58852
1681.26	-2.56779
1681.52	2.37016
1681.78	2.36948
1682.03	-4.54618
1682.29	4.34505
1682.55	4.34555
1682.81	-0.593136
1683.07	-0.59457
1683.33	2.36816
1683.59	-1.58365
1683.85	4.34372
1684.11	-0.59647
1684.37	-4.5498
1684.63	-2.57942
1684.89	-3.56971
1685.14	-0.608715
1685.4	-5.54704
1685.66	-0.610077
1685.92	2.35244
1686.18	1.36564
1686.44	-0.608063
1686.7	-0.604591
1686.96	0.391258
1687.22	-1.58012
1687.48	0.396957
1687.73	3.358
1687.99	0.390484
1688.25	2.36179
1688.51	-2.57911
1688.77	-5.54468
1689.03	-2.58711
1689.29	0.367065
1689.55	-1.61265
1689.81	2.32839
1690.06	2.32109
1690.32	-4.59146
1690.58	-0.647987
1690.84	-3.59808
1691.1	-0.63311
1691.36	-3.58913
1691.62	0.360382
1691.88	3.3258
1692.13	-0.617546
1692.39	1.35722
1692.65	0.368916
1692.91	1.35085
1693.17	4.30383
1693.43	-2.60934
1693.69	2.31233
1693.95	-6.5709
1694.2	-1.64846
1694.46	1.30148
1694.72	-3.63173
1694.98	0.304321
1695.24	-2.65035
1695.5	-2.64729
1695.76	3.26652
1696.01	2.28475
1696.27	-1.65252
1696.53	1.3098
1696.79	0.32906
1697.05	-0.65567
1697.31	-0.658089
1697.57	3.27697
1697.82	0.312603
1698.08	-1.66582
1698.34	-5.61037
1698.6	1.27553
1698.86	-0.698101
1699.12	-1.68602
1699.38	0.280499
1699.63	3.23259
1699.89	-1.68386
1700.15	-0.698269
1700.41	-0.696358
1700.67	-0.701912
1700.92	-0.702248
1701.18	2.2487
1701.44	4.21517
1701.7	1.26192
1701.96	-0.710011
1702.22	-4.6491
1702.47	0.261787
1702.73	-0.727276
1702.99	3.19818
1703.25	-2.69869
1703.51	-3.68083
1703.77	-1.71644
1704.02	-1.71843
1704.28	2.21059
1704.54	3.19829
1704.8	3.20536
1705.06	3.20823
1705.32	1.24257
1705.57	-1.70602
1705.83	-3.66956
1706.09	2.22749
1706.35	1.24043
1706.61	-0.730705
1706.86	-2.70174
1707.12	-4.67235
1707.38	-1.73445
1707.64	-0.759281
1707.9	-2.72954
1708.16	0.203125
1708.41	0.192783
1708.67	2.14259
1708.93	5.06887
1709.19	-3.75781
1709.44	4.06952
1709.7	0.148998
1709.96	0.148144
1710.22	4.06512
1710.48	1.13093
1710.73	-1.80294
1710.99	-1.79806
1711.25	-5.70766
1711.51	1.15252
1711.77	-0.800896
1712.02	-2.75513
1712.28	-0.79364
1712.54	2.14241
1712.8	-1.78329
1713.06	4.07613
1713.31	0.146912
1713.57	4.04533
1713.83	-3.78811
1714.09	-3.7989
1714.34	3.03577
1714.6	2.05581
1714.86	0.100628
1715.12	-3.80632
1715.38	4.00877
1715.63	1.08747
1715.89	0.121105
1716.15	4.03131
1716.41	2.076
1716.66	4.02613
1716.92	0.112774
1717.18	0.104229
1717.44	2.04515
1717.69	4.95737
1717.95	-1.88755
1718.21	1.02307
1718.47	2.95909
1718.72	-4.8441
1718.98	-1.92778
1719.24	3.91199
1719.5	2.93981
1719.75	3.91531
1720.01	0.0209427
1720.27	-6.78952
1720.53	3.92472
1720.78	1.00218
1721.04	2.94436
1721.3	4.88196
1721.56	0.0105629
1721.81	2.9236
1722.07	-1.9459
1722.33	-0.980099
1722.59	-0.987175
1722.84	-2.93763
1723.1	1.91429
1723.36	1.90825
1723.62	1.9039
1723.87	1.90177
1724.13	-1.00932
1724.39	1.90297
1724.64	6.75804
1724.9	3.84106
1725.16	-1.01991
1725.42	5.75907
1725.67	3.80656
1725.93	-0.0842438
1726.19	8.63159
1726.45	1.84523
1726.7	3.789
1726.96	3.78845
1727.22	-1.05965
1727.47	-3.97575
1727.73	3.77431
1727.99	1.84937
1728.24	3.78692
1728.5	5.7197
1728.76	-2.03951
1729.02	1.78118
1729.27	1.72297
1729.53	1.70335
1729.79	7.52067
1730.05	4.64951
1730.3	-1.12856
1730.56	1.74875
1730.82	-5.01687
1731.07	6.56606
1731.33	6.61894
1731.59	1.7925
1731.84	2.76249
1732.1	-0.134983
1732.36	4.69754
1732.61	4.69621
1732.87	1.79584
1733.13	1.79267
1733.39	1.78708
1733.64	2.74344
1733.9	4.66056
1734.16	3.68093
1734.41	0.777809
1734.67	3.6611
1734.93	-2.13243
1735.18	6.53062
1735.44	4.59298
1735.7	-0.230797
1735.95	0.727039
1736.21	5.53701
1736.47	4.57342
1736.72	3.60958
1736.98	5.53158
1737.24	1.68004
1737.49	0.71521
1737.75	0.712967
1738.01	6.48162
1738.26	3.59206
1738.52	-1.22066
1738.78	1.65817
1739.03	1.65289
1739.29	-0.275043
1739.55	3.55901
1739.8	1.62631
1740.06	2.57129
1740.32	3.51641
1740.57	4.46273
1740.83	6.3697
1741.09	5.40356
1741.34	4.43878
1741.6	3.47453
1741.86	1.5537
1742.11	2.50783
1742.37	1.54916
1742.63	2.50734
1742.88	3.46452
1743.14	2.50605
1743.4	-1.32217
1743.65	-0.362942
1743.91	1.55056
1744.16	5.3731
1744.42	4.41203
1744.68	3.45227
1744.93	6.32192
1745.19	-0.370575
1745.45	3.45921
1745.7	-0.363766
1745.96	0.593861
1746.22	5.37391
1746.47	10.1492
1746.73	4.40444
1746.98	9.17306
1747.24	7.25451
1747.5	-0.396172
1747.75	3.41803
1748.01	1.50219
1748.27	-1.36288
1748.52	1.50304
1748.78	2.46126
1749.03	3.42062
1749.29	5.33592
1749.55	-3.24908
1749.8	1.53439
1750.06	5.36578
1750.32	5.37874
1750.57	5.39195
1750.83	2.5369
1751.08	4.4551
1751.34	4.46311
1751.6	3.51146
1751.85	2.55345
1752.11	4.45641
1752.36	7.31279
1752.62	3.48517
1752.88	4.43448
1753.13	7.29224
1753.39	3.46746
1753.64	4.41716
1753.9	0.59663
1754.15	3.4556
1754.41	7.2648
1754.67	4.39737
1754.92	3.44067
1755.18	5.34468
1755.43	1.53024
1755.69	8.19985
1755.95	1.52509
1756.2	2.47264
1756.46	11.9906
1756.71	6.26727
1756.97	6.25629
1757.23	6.24546
1757.48	-0.423218
1757.74	6.23381
1757.99	2.4273
1758.25	9.09099
1758.5	4.35088
1758.76	5.30951
1759.02	7.21682
1759.27	4.36587
1759.53	4.36965
1759.78	3.42336
1760.04	8.18397
1760.3	8.18373
1760.55	8.18301
1760.81	6.27909
1761.06	3.42339
1761.32	8.17558
1761.57	8.16958
1761.83	4.36161
1762.08	6.26091
1762.34	3.40903
1762.6	5.31164
1762.85	6.2728
1763.11	2.47761
1763.36	7.23583
1763.62	6.28627
1763.87	2.48754
1764.13	5.34631
1764.38	3.45195
1764.64	10.1221
1764.89	6.33676
1765.15	5.39511
1765.4	7.30769
1765.66	7.3151
1765.92	2.56119
1766.17	6.37404
1766.43	3.52112
1766.68	5.42701
1766.94	12.0905
1767.19	12.0902
1767.45	6.38125
1767.7	7.33259
1767.96	8.28124
1768.21	11.132
1768.47	11.1296
1768.73	7.32309
1768.98	4.46908
1769.24	8.25852
1769.49	12.9882
1769.75	10.1156
1770	6.3042
1770.26	7.25813
1770.51	9.1714
1770.77	4.43593
1771.02	9.19013
1771.28	3.49575
1771.53	2.55941
1771.79	10.1829
1772.04	10.1921
1772.3	3.54123
1772.55	4.50219
1772.81	9.2703
1773.06	3.57187
1773.32	10.241
1773.57	12.153
1773.83	5.49869
1774.08	10.2653
1774.34	8.36816
1774.59	5.51776
1774.85	12.1874
1775.1	-1.13367
1775.36	6.4906
1775.61	7.45391
1775.87	12.2419
1776.12	6.53882
1776.38	13.2206
1776.63	11.3189
1776.89	6.55307
1777.14	9.41004
1777.4	9.40492
1777.65	10.3558
1777.91	11.3029
1778.16	12.2498
1778.42	5.57666
1778.67	2.71516
1778.93	8.42175
1779.18	7.4608
1779.44	6.49968
1779.69	3.64128
1779.95	4.59484
1780.2	12.2228
1780.46	4.61564
1780.71	4.62157
1780.97	4.62813
1781.22	4.6352
1781.47	9.39892
1781.73	2.73952
1781.98	8.45875
1782.24	7.51566
1782.49	1.81115
1782.75	2.77583
1783	0.879139
1783.26	11.3687
1783.51	4.70558
1783.77	3.76065
1784.02	6.6287
1784.28	12.3586
1784.53	-0.0267601
1784.79	12.3859
1785.04	-0.00599289
1785.29	2.86218
1785.55	3.81901
1785.8	3.81956
1786.06	0.0020752
1786.31	-1.90696
1786.57	3.81967
1786.82	5.73383
1787.08	0.972733
1787.33	5.75534
1787.58	7.67913
1787.84	1.96879
1788.09	3.90617
1788.35	7.7601
1788.6	1.09357
1788.86	4.94144
1789.11	1.12165
1789.37	6.87918
1789.62	5.94036
1789.87	5.9539
1790.13	7.87888
1790.38	7.88734
1790.64	4.06121
1790.89	-1.68793
1791.15	-0.728447
1791.4	4.05797
1791.65	4.99306
1791.91	3.07639
1792.16	-1.71342
1792.42	3.07788
1792.67	4.03976
1792.93	-0.744469
1793.18	4.05223
1793.43	4.05816
1793.69	2.14558
1793.94	-1.68379
1794.2	0.239624
1794.45	4.07636
1794.7	2.16155
1794.96	3.11596
1795.21	2.17138
1795.47	1.24518
1795.72	2.22693
1795.97	1.27968
1796.23	3.2082
1796.48	2.25766
1796.74	3.22787
1796.99	-0.60424
1797.25	4.20942
1797.5	1.3365
1797.75	7.11185
1798.01	-3.45413
1798.26	1.35883
1798.51	-1.51987
1798.77	-0.553986
1799.02	5.2179
1799.28	-0.551411
1799.53	1.36959
1799.78	4.24951
1800.04	2.32134
1800.29	2.31629
1800.55	6.1558
1800.8	1.34945
1801.05	0.387489
1801.31	1.3478
1801.56	3.26959
1801.81	-0.5704
1802.07	4.23561
1802.32	1.3586
1802.58	4.24645
1802.83	6.17558
1803.08	2.34079
1803.34	2.35059
1803.59	4.28391
1803.84	-0.514877
1804.1	2.37547
1804.35	-1.46747
1804.61	1.42462
1804.86	4.31995
1805.11	-0.481747
1805.37	0.490742
1805.62	-2.3862
1805.87	2.43892
1806.13	-0.440289
1806.38	-0.431976
1806.64	1.50265
1806.89	1.50968
1807.14	0.551079
1807.4	-2.33723
1807.65	1.52002
1807.9	-3.29715
1808.16	3.45169
1808.41	-2.32896
1808.66	-0.398708
1808.92	2.49579
1809.17	5.39074
1809.42	2.5021
1809.68	-0.386982
1809.93	3.47249
1810.18	2.51167
1810.44	-0.37785
1810.69	0.588264
1810.94	4.44446
1811.2	-4.2328
1811.45	1.55263
1811.7	-1.33886
1811.96	2.51831
1812.21	2.52022
1812.46	0.59539
1812.72	-2.29174
1812.97	-2.28543
1813.22	-0.34877
1813.48	-1.30675
1813.73	-1.30322
1813.98	-0.331905
1814.24	3.53807
1814.49	3.55031
1814.74	3.563
1815	-1.25219
1815.25	6.48545
1815.5	5.52728
1815.76	-0.266365
1816.01	5.5357
1816.26	-2.19327
1816.52	-0.257042
1816.77	0.71331
1817.02	1.68395
1817.27	0.716202
1817.53	0.711937
1817.78	5.52595
1818.03	-4.14478
1818.29	-0.278839
1818.54	-0.271172
1818.79	2.63863
1819.05	3.61239
1819.3	0.712269
1819.55	10.3806
1819.8	1.68819
1820.06	1.69381
1820.31	3.63191
1820.56	-1.19685
1820.82	4.6112
1821.07	-2.1533
1821.32	2.68714
1821.58	2.69349
1821.83	2.70074
1822.08	-3.09877
1822.33	6.58413
1822.59	-2.12207
1822.84	2.72101
1823.09	4.66015
1823.34	1.75879
1823.6	2.72693
1823.85	5.62831
1824.1	1.75323
1824.36	4.65657
1824.61	2.72475
1824.86	5.63316
1825.11	2.73318
1825.37	2.73783
1825.62	5.64783
1825.87	4.68323
1826.12	5.65316
1826.38	-2.09393
1826.63	2.74967
1826.88	-0.154102
1827.14	1.78441
1827.39	-1.11833
1827.64	0.822994
1827.89	3.73413
1828.15	1.8009
1828.4	1.80165
1828.65	1.80057
1828.9	2.76604
1829.16	-4.01965
1829.41	1.78905
1829.66	5.6621
1829.91	1.78691
1830.17	-1.12024
1830.42	0.812584
1830.67	3.71333
1830.92	2.74128
1831.18	0.805504
1831.43	-0.15823
1831.68	4.6889
1831.93	0.820904
1832.19	1.79457
1832.44	-0.137772
1832.69	-1.10127
1832.94	0.844376
1833.2	6.66549
1833.45	1.82018
1833.7	2.79055
1833.95	1.825
1834.2	1.82698
1834.46	5.7078
1834.71	3.75842
1834.96	5.67468
1835.21	4.68551
1835.47	5.63427
1835.72	2.71912
1835.97	3.67564
1836.22	3.6751
1836.48	3.66576
1836.73	3.82977
1836.98	1.88285
1837.23	1.83081
1837.48	0.843292
1837.74	0.816525
1837.99	0.792999
1838.24	2.68843
1838.49	1.69789
1838.74	3.62516
1839	4.66054
1839.25	-0.151848
1839.5	7.61223
1839.75	3.74247
1840	1.80956
1840.26	0.849575
1840.51	1.78324
1840.76	1.75607
1841.01	-0.201538
1841.27	-3.12048
1841.52	5.5597
1841.77	1.67714
1842.02	1.66127
1842.27	3.57704
1842.53	1.63343
1842.78	2.58475
1843.03	-1.26725
1843.28	-0.306698
1843.53	3.55554
1843.78	1.62519
1844.04	1.62473
1844.29	3.5492
1844.54	-0.309666
1844.79	4.51758
1845.04	3.5532
1845.3	1.61694
1845.55	-1.27581
1845.8	0.653015
1846.05	1.63285
1846.3	-3.17793
1846.55	4.56091
1846.81	1.68997
1847.06	-0.263966
1847.31	-1.28153
1847.56	2.50964
1847.81	1.53335
1848.07	1.53339
1848.32	-2.30043
1848.57	1.56905
1848.82	-4.22978
1849.07	2.50038
1849.32	-1.35057
1849.57	2.49225
1849.83	2.48013
1850.08	-0.419262
1850.33	1.49273
1850.58	4.36179
1850.83	-5.26276
1851.09	1.45438
1851.34	0.484509
1851.59	1.43702
1851.84	2.39083
1852.09	1.42555
1852.34	-11.0603
1852.59	-0.499107
1852.84	-1.46029
1853.1	0.459015
1853.35	-2.42376
1853.6	0.453415
1853.85	-3.39197
1854.1	0.439827
1854.35	6.18588
1854.6	0.415096
1854.86	-1.51467
1855.11	-1.52135
1855.36	-1.5279
1855.61	1.33595
1855.86	3.23845
1856.11	1.31384
1856.36	0.351307
1856.61	2.26372
1856.87	2.26245
1857.12	4.17654
1857.37	-5.40428
1857.62	0.337749
1857.87	1.28959
1858.12	4.15596
1858.37	3.19089
1858.63	1.2672
1858.88	0.300247
1859.13	-0.666462
1859.38	0.279747
1859.63	6.00605
1859.88	1.21688
1860.13	-0.697533
1860.38	-1.65487
1860.63	-0.698093
1860.89	4.08857
1861.14	3.13778
1861.39	-1.64078
1861.64	-0.67894
1861.89	0.282196
1862.14	3.15357
1862.39	-1.63475
1862.64	-1.64164
1862.9	2.17554
1863.15	-0.704411
1863.4	-2.62693
1863.65	0.231297
1863.9	0.221642
1864.15	3.07932
1864.4	-2.66182
1864.65	0.196014
1864.9	-2.67738
1865.15	2.08788
1865.4	1.12161
1865.66	1.10847
1865.91	-7.49174
1866.16	2.03134
1866.41	4.87289
1866.66	-3.72203
1866.91	0.0718727
1867.16	0.0545807
1867.41	-1.86564
1867.66	1.92429
1867.91	-1.89292
1868.16	0.951511
1868.41	-0.00537491
1868.67	-0.960503
1868.92	-3.81382
1869.17	-1.91261
1869.42	-1.91488
1869.67	-0.968037
1869.92	-1.9229
1870.17	-1.92693
1870.42	0.920757
1870.67	-0.984085
1870.92	-1.93799
1871.17	2.81106
1871.42	-3.8443
1871.67	-0.997822
1871.92	1.84664
1872.17	-2.91235
1872.42	0.881191
1872.68	-1.0244
1872.93	-0.0834732
1873.18	-3.89107
1873.43	-2.94839
1873.68	1.79442
1873.93	-1.05857
1874.18	-2.96403
1874.43	4.61875
1874.68	-3.93117
1874.93	-0.147705
1875.18	-1.10762
1875.43	-3.96364
1875.68	-1.13204
1875.93	4.53713
1876.18	3.56503
1876.43	2.60129
1876.68	-1.19796
1876.93	2.57499
1877.18	1.62117
1877.43	-0.291203
1877.68	-3.15015
1877.93	0.58382
1878.18	-1.27702
1878.44	-5.88965
1878.69	1.6377
1878.93	-1.22062
1879.19	-2.17372
1879.44	4.48571
1879.69	1.66012
1879.94	-6.87836
1880.19	0.684807
1880.44	2.57406
1880.69	4.46239
1880.94	0.681381
1881.19	-4.06334
1881.44	4.45283
1881.69	-0.298481
1881.94	-1.26503
1882.19	-1.28549
1882.44	1.52739
1882.69	0.558212
1882.94	-1.35786
1883.19	-4.20075
1883.44	2.37161
1883.69	1.68097
1883.94	-5.10297
1884.19	-5.18874
1884.44	-0.476654
1884.69	0.485405
1884.94	-1.42227
1885.19	-3.29735
1885.44	2.37758
1885.69	2.38052
1885.94	-0.448017
1886.19	0.511314
1886.44	3.35041
1886.69	0.52058
1886.94	-0.430332
1887.19	0.495529
1887.44	-1.40319
1887.69	-1.41428
1887.94	5.17751
1888.19	-4.26699
1888.44	-0.507805
1888.69	-8.06458
1888.94	0.401596
1889.19	0.386868
1889.44	-7.15984
1889.69	-3.40223
1889.94	4.12447
1890.19	5.06096
1890.44	-0.586311
1890.69	-2.4641
1890.94	-1.51714
1891.19	0.366245
1891.43	-4.34739
1891.68	0.355625
1891.94	1.29377
1892.18	0.346611
1892.43	2.22501
1892.68	-2.48751
1892.93	0.329037
1893.18	-1.56429
1893.43	1.24292
1893.68	1.21859
1893.93	4.01683
1894.18	1.18923
1894.43	2.13249
1894.68	-1.64354
1894.93	-1.6529
1895.18	-0.719215
1895.43	-1.66067
1895.68	-0.721493
1895.93	0.21888
1896.18	1.16004
1896.43	-1.65768
1896.68	3.98535
1896.93	-2.59131
1897.18	-0.707642
1897.42	-0.705929
1897.68	0.235065
1897.92	0.233723
1898.17	-1.65086
1898.42	-1.65612
1898.67	-5.42538
1898.92	2.08869
1899.17	-0.74374
1899.42	-1.69607
1899.67	4.872
1899.92	0.166367
1900.17	2.97692
1900.42	2.0293
1900.67	1.08547
1900.92	-0.795208
1901.16	-2.67361
1901.41	0.147892
1901.66	-2.66698
1901.91	0.156677
1902.16	4.86225
1902.41	2.0477
1902.66	-0.76897
1902.91	2.05032
1903.16	3.92498
1903.41	0.155529
1903.66	-0.792549
1903.91	2.96228
1904.16	-1.7448
1904.41	0.130714
1904.65	0.126343
1904.9	1.06195
1905.15	1.99676
1905.4	-5.52863
1905.65	-0.832031
1905.9	6.68274
1906.15	-1.79059
1906.4	1.95167
1906.65	-1.81418
1906.9	4.75267
1907.14	-2.76761
1907.39	1.92177
1907.64	0.979893
1907.89	-0.899323
1908.14	3.79831
1908.39	0.984566
1908.64	-2.77349
1908.89	-3.71434
1909.14	0.984154
1909.39	0.047142
1909.63	0.991425
1909.88	-0.88266
1910.13	0.0654984
1910.38	2.8971
1910.63	2.90788
1910.88	1.03409
1911.13	0.0977783
1911.38	0.100365
1911.62	1.98468
1911.87	1.04099
1912.12	1.97938
1912.37	1.97337
1912.62	1.02549
1912.87	1.02134
1913.12	-3.69129
1913.37	-1.81081
1913.61	1.95469
1913.86	1.01534
1914.11	4.7923
1914.36	-1.79598
1914.61	0.0946579
1914.86	1.04215
1915.11	2.9337
1915.36	2.93832
1915.6	2.94079
1915.85	-1.77833
1916.1	1.99197
1916.35	-1.78881
1916.6	-1.79406
1916.85	-0.859112
1917.1	-3.69971
1917.34	0.0630379
1917.59	-1.83151
1917.84	-3.72409
1918.09	0.0413895
1918.34	3.81005
1918.59	1.92671
1918.83	3.81831
1919.08	-2.77745
1919.33	5.72244
1919.58	-1.81864
1919.83	-1.80717
1920.08	-2.7426
1920.33	-0.849567
1920.57	-1.79616
1920.82	-4.6381
1921.07	3.86477
1921.32	0.0914803
1921.57	4.82502
1921.81	3.88266
1922.06	-0.843266
1922.31	0.102448
1922.56	-2.73815
1922.81	1.03859
1923.06	0.0837936
1923.31	8.5839
1923.55	-2.7679
1923.8	1.00702
1924.05	1.94527
1924.3	2.88143
1924.55	0.981133
1924.79	-0.916435
1925.04	0.968273
1925.29	2.85606
1925.54	0.968204
1925.79	-2.80742
1926.04	1.92688
1926.28	5.71721
1926.53	0.0495758
1926.78	1.94899
1927.03	5.74408
1927.28	0.0696564
1927.52	3.85945
1927.77	1.02105
1928.02	2.91684
1928.27	1.02381
1928.52	-0.869915
1928.76	4.81375
1929.01	-2.76413
1929.26	-2.76291
1929.51	1.0306
1929.76	-0.860176
1930	-3.69698
1930.25	3.89692
1930.5	-0.838001
1930.75	-2.73055
1931	7.71846
1931.24	-3.67451
1931.49	0.12104
1931.74	-0.834476
1931.99	0.106781
1932.24	-1.79982
1932.48	-2.7571
1932.73	2.9282
1932.98	0.0724564
1933.23	2.91367
1933.47	4.8022
1933.72	1.00706
1933.97	6.70854
1934.22	0.0811958
1934.46	-0.847439
1934.71	-1.76896
1934.96	0.161797
1935.21	0.186646
1935.46	-1.69935
1935.7	-3.59183
1935.95	-2.62981
1936.2	-1.70294
1936.45	1.14949
1936.69	0.190872
1936.94	-1.72286
1937.19	2.0774
1937.44	-0.792843
1937.68	3.00551
1937.93	-1.76653
1938.18	0.127617
1938.43	1.06849
1938.68	-3.69351
1938.92	-0.828709
1939.17	-3.68391
1939.42	3.93673
1939.67	1.08318
1939.91	-0.82008
1940.16	-1.76985
1940.41	-0.818604
1940.66	2.04643
1940.9	-1.76004
1941.15	-0.785477
1941.4	-0.774353
1941.64	-0.777393
1941.89	2.07735
1942.14	-1.75517
1942.39	-0.826439
1942.63	-1.76966
1942.88	2.08251
1943.13	2.0889
1943.38	0.177792
1943.62	-2.70396
1943.87	-3.67673
1944.12	-0.830204
1944.37	3.96199
1944.61	-4.62301
1944.86	-0.799973
1945.11	-3.65938
1945.35	-1.74343
1945.6	2.08444
1945.85	0.179901
1946.1	-2.6824
1946.34	-0.766483
1946.59	7.84261
1946.84	-3.63162
1947.09	3.06263
1947.33	-1.72316
1947.58	-5.55446
1947.83	4.00182
1948.07	2.08557
1948.32	-3.65491
1948.57	1.12307
1948.82	1.11715
1949.06	0.160069
1949.31	-1.74862
1949.56	0.169033
1949.8	2.08789
1950.05	-2.68989
1950.3	3.06028
1950.54	0.201687
1950.79	0.216385
1951.04	4.0611
1951.29	-0.71957
1951.53	1.21152
1951.78	-3.57442
1952.03	1.23293
1952.27	1.23802
1952.52	-5.48062
1952.77	-3.55719
1953.01	0.280457
1953.26	0.284782
1953.51	1.25267
1953.76	-0.681885
1954	5.06271
1954.25	-0.724941
1954.49	2.12894
1954.74	-1.72893
1954.99	3.04262
1955.24	-1.75565
1955.48	2.07235
1955.73	-1.75767
1955.98	0.166252
1956.22	-0.778564
1956.47	0.204544
1956.72	5.01141
1956.96	-0.737301
1957.21	-1.69349
1957.46	0.233452
1957.7	-0.721581
1957.95	-1.67776
1958.2	0.24699
1958.44	-0.712547
1958.69	0.248905
1958.94	2.17094
1959.18	2.16534
1959.43	1.19433
1959.68	-0.733585
1959.92	2.14516
1960.17	1.17604
1960.42	2.12809
1960.66	3.08015
1960.91	-4.61083
1961.16	-0.779186
1961.4	1.13176
1961.65	3.04301
1961.9	-1.76155
1962.14	1.11647
1962.39	-1.76269
1962.63	-2.72324
1962.88	-2.72387
1963.13	-4.64426
1963.37	-1.76535
1963.62	1.11367
1963.87	-2.72698
1964.11	0.152786
1964.36	3.03592
1964.61	-3.68357
1964.85	0.154808
1965.1	-2.73078
1965.35	3.02917
1965.59	1.10528
1965.84	3.02452
1966.08	5.90758
1966.33	4.95361
1966.58	4.00058
1966.82	3.04709
1967.07	4.01266
1967.32	4.01614
1967.56	4.01297
1967.81	-0.794571
1968.05	4.01331
1968.3	0.167778
1968.55	-1.75512
1968.79	0.165062
1969.04	-2.72412
1969.29	1.11234
1969.53	2.0618
1969.78	2.04737
1970.02	2.99318
1970.27	2.02083
1970.52	5.85015
1970.76	2.00342
1971.01	2.95429
1971.25	1.98703
1971.5	1.98079
1971.75	0.056839
1971.99	1.97049
1972.24	0.0533752
1972.48	1.01474
1972.73	1.01519
1972.98	1.01318
1973.22	4.84531
1973.47	1.00019
1973.71	1.94893
1973.96	3.85752
1974.21	2.89185
1974.45	1.92836
1974.7	0.00835419
1974.94	2.88257
1975.19	3.84118
1975.44	2.88461
1975.68	3.84724
1975.93	6.72898
1976.17	10.5698
1976.42	5.77778
1976.66	3.86093
1976.91	6.73888
1977.16	6.73783
1977.4	1.93909
1977.65	7.69014
1977.89	6.72469
1978.14	0.963028
1978.39	6.70801
1978.63	10.5353
1978.88	6.69469
1979.12	5.73223
1979.37	4.77253
1979.61	1.89721
1979.86	3.81337
1980.1	4.77252
1980.35	6.68932
1980.6	1.89149
1980.84	7.63328
1981.09	6.6664
1981.33	6.66154
1981.58	6.6542
1981.82	5.69047
1982.07	11.4333
1982.31	7.59952
1982.56	16.2164
1982.81	9.50389
1983.05	3.75053
1983.3	1.82547
1983.54	11.3821
1983.79	4.67348
1984.03	9.4516
1984.28	5.62114
1984.52	11.3549
1984.77	3.69808
1985.02	7.51891
1985.26	10.3789
1985.51	9.40976
1985.75	9.40315
1986	3.66802
1986.24	10.3608
1986.49	9.41089
1986.73	5.59368
1986.98	11.3341
1987.22	10.3755
1987.47	12.291
1987.71	4.63308
1987.96	19.9133
1988.21	14.1605
1988.45	8.40947
1988.7	15.0717
1988.94	11.2263
1989.19	12.0916
1989.43	13.9615
1989.68	12.9727
1989.92	11.1207
1990.17	10.8874
1990.41	10.0181
1990.66	8.59477
1990.9	12.7923
1991.15	8.57152
1991.39	11.2006
1991.64	10.7765
1991.88	10.603
1992.13	11.3666
1992.37	16.7618
1992.62	12.1459
1992.86	13.8932
1993.11	12.1621
1993.35	8.85604
1993.6	13.0943
1993.84	12.4617
1994.09	16.4749
1994.33	16.9697
1994.58	13.0383
1994.82	15.3155
1995.07	15.1639
1995.31	18.0285
1995.56	17.8555
1995.8	14.863
1996.05	13.4031
1996.29	18.4216
1996.54	12.4837
1996.78	12.3876
1997.03	12.3733
1997.27	15.2386
1997.52	16.9819
1997.76	14.1577
1998.01	14.7643
1998.25	13.1492
1998.5	16.2271
1998.74	16.3855
1998.99	17.321
1999.23	13.1211
1999.48	12.614
1999.72	18.6506
1999.97	16.8878
2000.21	16.4
2000.46	15.8739
2000.7	16.9624
2000.95	17.8249
2001.19	16.1889
2001.43	13.989
2001.68	17.3446
2001.92	16.6949
2002.17	15.7079
2002.41	17.548
2002.66	12.7756
2002.9	15.4868
2003.15	17.054
2003.39	16.1138
2003.64	18.5226
2003.88	17.219
2004.13	17.7297
2004.37	18.7024
2004.61	17.2404
2004.86	18.8416
2005.1	16.0137
2005.35	15.5631
2005.59	19.7591
2005.84	19.276
2006.08	16.5585
2006.33	19.3981
2006.57	19.3179
2006.81	17.3863
2007.06	17.3943
2007.3	16.1829
2007.55	16.6387
2007.79	19.5828
2008.04	16.9265
2008.28	15.544
2008.53	15.0829
2008.77	19.1804
2009.01	16.1213
2009.26	16.9868
2009.5	15.263
2009.75	14.9082
2009.99	19.8623
2010.24	16.2007
2010.48	15.3324
2010.73	14.3169
2010.97	17.8517
2011.21	21.032
2011.46	17.7667
2011.7	11.9268
2011.95	12.1555
2012.19	19.065
2012.43	11.7607
2012.68	12.7003
2012.92	19.2895
2013.17	12.6904
2013.42	16.4391
2013.67	12.6522
2013.91	22.983
2014.16	9.804
2014.41	17.3015
2014.66	18.2138
2014.9	14.4358
2015.15	17.2467
2015.4	15.3745
2015.64	10.6909
2015.89	16.3343
2016.14	14.4654
2016.39	17.2786
2016.63	14.4778
2016.88	9.81979
2017.13	16.4084
2017.37	16.4076
2017.62	17.3416
2017.87	10.755
2018.11	15.4387
2018.36	12.6045
2018.61	21.9707
2018.86	18.1992
2019.1	14.4305
2019.35	12.5378
2019.6	15.3334
2019.84	10.6418
2020.09	18.1313
2020.34	14.3833
2020.58	9.70185
2020.83	11.5755
2021.08	9.70335
2021.33	10.6454
2021.57	12.5246
2021.82	14.4011
2022.07	10.6551
2022.31	9.71704
2022.56	9.71333
2022.81	13.4522
2023.05	8.76289
2023.3	12.4958
2023.55	11.5526
2023.8	14.3508
2024.04	11.5373
2024.29	13.3995
2024.54	13.3928
2024.78	6.83846
2025.03	12.4309
2025.27	11.4837
2025.52	7.73762
2025.77	12.3935
2026.02	5.85265
2026.26	9.57121
2026.51	10.5118
2026.76	17.0644
2027	12.434
2027.25	8.73773
2027.5	7.84544
2027.74	11.6157
2027.99	13.4838
2028.23	12.5201
2028.48	13.4117
2028.73	10.4825
2028.98	6.87688
2029.22	12.6672
2029.47	11.6352
2029.72	11.6844
2029.96	11.6026
2030.21	12.4867
2030.45	15.232
2030.7	10.5693
2030.95	7.73811
2031.19	10.5724
2031.44	9.67131
2031.69	6.86881
2031.93	11.5382
2032.18	5.01183
2032.43	9.69472
2032.67	9.714
2032.92	8.80108
2033.17	8.8202
2033.41	5.0976
2033.66	6.04505
2033.91	10.7371
2034.15	7.00713
2034.4	13.5312
2034.64	8.83052
2034.89	5.05518
2035.14	4.11541
2035.38	6.93684
2035.63	3.22164
2035.87	9.78763
2036.12	7.95626
2036.37	7.98354
2036.61	4.24461
2036.86	7.03172
2037.11	12.6462
2037.35	7.98719
2037.6	5.18589
2037.84	5.18806
2038.09	4.25333
2038.34	7.05693
2038.58	6.12032
2038.83	7.98695
2039.08	8.91848
2039.32	7.04707
2039.57	4.2417
2039.81	6.10689
2040.06	2.36697
2040.31	4.22715
2040.55	9.81929
2040.8	6.07996
2041.04	5.14143
2041.29	7.00221
2041.54	3.26976
2041.78	7.93243
2042.03	5.13763
2042.27	7.0007
2042.52	4.20417
2042.77	8.85907
2043.01	5.13335
2043.26	6.06956
2043.5	4.21457
2043.75	3.29844
2044	6.1166
2044.24	4.2737
2044.49	7.08376
2044.73	5.22063
2044.98	8.01348
2045.23	6.13351
2045.47	4.23721
2045.72	8.02293
2045.96	7.10892
2046.21	8.11086
2046.45	8.18937
2046.7	1.61102
2046.95	7.18334
2047.19	5.28917
2047.44	6.22939
2047.68	6.22172
2047.93	6.19234
2048.17	3.39177
2048.42	4.33088
2048.67	3.40577
2048.91	6.21067
2049.16	6.22034
2049.4	1.57333
2049.65	8.117
2049.89	0.669876
2050.14	7.22348
2050.39	9.10836
2050.63	6.32462
2050.88	3.53422
2051.12	6.34446
2051.37	-4.86329
2051.61	1.67371
2051.86	-0.199627
2052.11	5.40783
2052.35	2.61292
2052.6	5.42617
2052.84	3.56563
2053.09	6.37818
2053.33	3.58805
2053.58	4.53609
2053.82	0.813675
2054.07	2.70732
2054.31	5.52625
2054.56	-1.94583
2054.8	3.67372
2055.05	5.54939
2055.3	4.61747
2055.54	4.62027
2055.79	5.55124
2056.03	2.74719
2056.28	0.88113
2056.52	7.42744
2056.77	3.68937
2057.01	2.75787
2057.26	-0.040699
2057.5	8.37973
2057.75	1.84531
2058	1.85601
2058.24	1.86778
2058.49	2.81485
2058.73	2.83055
2058.98	1.90979
2059.22	3.79565
2059.47	5.68006
2059.71	5.68875
2059.96	0.0800285
2060.2	-1.78553
2060.45	3.83268
2060.69	-1.78303
2060.94	5.70612
2061.18	4.78137
2061.43	1.98518
2061.67	6.67631
2061.92	4.81192
2062.16	5.75527
2062.41	0.14513
2062.65	1.09035
2062.9	2.03711
2063.14	2.04885
2063.39	1.12529
2063.63	1.13788
2063.88	3.02344
2064.12	0.222538
2064.37	0.231976
2064.61	1.17871
2064.86	2.12696
2065.1	2.13903
2065.35	2.15448
2065.59	-0.641861
2065.84	1.25139
2066.08	2.20566
2066.33	4.09748
2066.57	4.10963
2066.82	4.11787
2067.06	-2.44524
2067.31	-0.556358
2067.55	3.21067
2067.8	3.22252
2068.04	3.23563
2068.29	5.12732
2068.53	2.31873
2068.78	-0.492157
2069.02	1.40006
2069.27	4.22749
2069.51	5.16825
2069.76	-0.475151
2070	-2.36265
2070.25	-0.483433
2070.49	0.465858
2070.73	-0.451683
2070.98	0.513298
2071.22	4.30155
2071.47	6.18645
2071.71	0.539036
2071.96	2.47071
2072.2	2.49331
2072.45	-2.21107
2072.69	-1.26515
2072.94	0.623787
2073.18	-0.31403
2073.43	0.634262
2073.67	2.52209
2073.92	-1.23533
2074.16	1.59741
2074.4	3.48977
2074.65	-0.265697
2074.89	-0.251991
2075.14	-4.00417
2075.38	0.726456
2075.63	1.69278
2075.87	1.71983
2076.12	2.68434
2076.36	-2.0213
2076.6	1.76258
2076.85	1.77135
2077.09	-0.113605
2077.34	2.71732
2077.58	0.828465
2077.83	-0.124546
2078.07	2.70744
2078.31	1.77613
2078.56	-1.03848
2078.8	-1.97166
2079.05	1.81255
2079.29	0.881531
2079.54	1.8414
2079.78	-1.91091
2080.03	-0.952332
2080.27	-1.88369
2080.51	0.0187225
2080.76	-1.85931
2081	-1.8516
2081.25	5.71147
2081.49	2.88126
2081.74	0.0529327
2081.98	-1.82981
2082.22	1.01057
2082.47	1.02076
2082.71	3.86571
2082.96	-0.849651
2083.2	0.103458
2083.45	0.110199
2083.69	-1.77389
2083.93	-1.7679
2084.18	0.129444
2084.42	-1.7526
2084.67	-3.6355
2084.91	2.98717
2085.15	2.99587
2085.4	-0.776405
2085.64	-2.65912
2085.89	0.183521
2086.13	2.08373
2086.37	-3.5711
2086.62	-0.71637
2086.86	-0.700756
2087.11	0.256214
2087.35	-0.677937
2087.59	1.22794
2087.84	1.23906
2088.08	-2.53861
2088.32	-0.637753
2088.57	-4.41492
2088.81	1.27285
2089.06	1.28239
2089.3	1.29174
2089.54	1.30511
2089.79	-3.41544
2090.03	2.28364
2090.28	-0.546913
2090.52	-4.3267
2090.76	-0.52734
2091.01	0.431023
2091.25	0.442688
2091.5	-2.38871
2091.74	2.36144
2091.98	-3.30937
2092.23	-2.34394
2092.47	-0.428333
2092.72	-3.25614
2092.96	-2.28793
2093.2	3.42611
2093.45	0.594177
2093.69	-2.23902
2093.93	4.42894
2094.18	-2.20852
2094.42	-4.09591
2094.66	-5.03709
2094.91	0.675087
2095.15	-3.12175
2095.39	-3.11635
2095.64	-1.21307
2095.88	-0.261295
2096.13	-0.258545
2096.37	2.59538
2096.61	-2.14968
2096.86	-1.19319
2097.1	2.61293
2097.34	2.61557
2097.59	-2.1323
2097.83	-0.232262
2098.07	0.721951
2098.32	0.727802
2098.56	-3.0632
2098.8	0.736423
2099.05	-1.15395
2099.29	3.59852
2099.53	-3.03933
2099.78	-1.13493
2100.02	-0.178719
2100.27	-0.170517
2100.51	-1.11061
2100.75	0.797302
2101	-2.03882
2101.24	-2.97224
2101.48	-0.109184
2101.73	0.852844
2101.97	1.81281
2102.21	-1.02877
2102.45	-4.82095
2102.7	-1.01366
2102.94	4.69073
2103.18	-0.0558586
2103.43	4.69189
2103.67	-0.0512047
2103.92	-0.99358
2104.16	-2.8861
2104.4	-0.0298615
2104.64	2.82904
2104.89	1.89334
2105.13	2.85645
2105.37	1.91993
2105.62	-1.86541
2105.86	0.0503349
2106.1	1.96571
2106.35	0.0768127
2106.59	-1.81284
2106.83	0.0980606
2107.08	1.0582
2107.32	-1.78281
2107.56	1.07861
2107.8	-1.76953
2108.05	1.08353
2108.29	2.03241
2108.53	-0.819904
2108.78	-2.72073
2109.02	2.97762
2109.26	0.134029
2109.51	1.09297
2109.75	1.11015
2109.99	3.02538
2110.23	4.93369
2110.48	-0.758118
2110.72	-0.750252
2110.96	-1.69239
2111.21	4.01554
2111.45	-0.72681
2111.69	0.228695
2111.93	-0.717999
2112.18	1.1858
2112.42	-0.70771
2112.66	4.04823
2112.91	3.11028
2113.15	-1.62703
2113.39	0.284752
2113.63	-1.59904
2113.88	1.2669
2114.12	0.32785
2114.36	2.23457
2114.61	-0.611866
2114.85	1.29602
2115.09	-1.54554
2115.33	5.11606
2115.58	3.22109
2115.82	-0.575413
2116.06	2.28047
2116.31	2.28526
2116.55	-0.564137
2116.79	-0.562809
2117.03	-5.30644
2117.28	1.34727
2117.52	-3.39428
2117.76	4.21194
2118	3.26633
2118.25	-3.37746
2118.49	2.32061
2118.73	-0.528217
2118.97	-3.37651
2119.22	0.418148
2119.46	-1.47796
2119.7	-4.32133
2119.94	-0.52816
2120.19	-1.47428
2120.43	-2.41885
2120.67	-1.46518
2120.91	-2.40392
2121.16	0.452412
2121.4	-0.484257
2121.64	0.479263
2121.88	0.495724
2122.13	-2.33411
2122.37	-0.422199
2122.61	1.48969
2122.85	2.45208
2123.1	-2.28087
2123.34	-3.21859
2123.58	-2.25884
2123.82	1.54781
2124.07	0.603451
2124.31	-0.341896
2124.55	1.55817
2124.79	1.55659
2125.03	-3.19206
2125.28	-0.355312
2125.52	1.53246
2125.76	1.52787
2126	5.31232
2126.25	1.52184
2126.49	-0.372643
2126.73	0.574093
2126.97	-1.31756
2127.21	0.574608
2127.46	-2.26178
2127.7	-2.25692
2127.94	0.585506
2128.18	-5.08141
2128.43	0.595055
2128.67	-2.23526
2128.91	2.49886
2129.15	0.616192
2129.39	2.51288
2129.64	-2.20823
2129.88	0.63253
2130.12	-1.25151
2130.36	-5.02553
2130.6	4.4299
2130.85	4.43454
2131.09	-3.12
2131.33	-7.83961
2131.57	0.664978
2131.81	4.44466
2132.06	-3.10734
2132.3	-3.1028
2132.54	-1.21067
2132.78	8.2292
2133.02	-2.15183
2133.27	-1.2038
2133.51	3.52129
2133.75	-4.01876
2133.99	4.48309
2134.23	1.65989
2134.48	-2.10596
2134.72	0.73386
2134.96	1.68419
2135.2	-1.14055
2135.44	-1.13406
2135.68	2.64635
2135.93	0.763012
2136.17	-1.12236
2136.41	-1.12501
2136.65	1.70099
2136.89	2.64582
2137.14	3.59756
2137.38	0.778202
2137.62	-1.09929
2137.86	2.68327
2138.1	-1.07383
2138.34	-1.06903
2138.59	-0.128307
2138.83	4.58467
2139.07	2.71362
2139.31	3.67585
2139.55	-1.02441
2139.79	3.68049
2140.03	1.78856
2140.28	1.78961
2140.52	-5.74566
2140.76	0.852131
2141	-1.02826
2141.24	-1.02362
2141.49	2.74807
2141.73	-0.0695686
2141.97	-0.0692291
2142.21	2.75452
2142.45	-2.88929
2142.69	3.70699
2142.93	-0.98595
2143.18	-1.91529
2143.42	-0.939617
2143.66	2.82264
2143.9	-1.02083
2144.14	-6.65189
2144.38	5.57821
2144.62	0.898296
2144.87	0.917313
2145.11	0.931305
2145.35	-2.84225
2145.59	-5.65333
2145.83	2.81745
2146.07	-0.938499
2146.31	0.946064
2146.55	1.89011
2146.8	0.954193
2147.04	0.958363
2147.28	-4.67716
2147.52	2.84326
2147.76	-1.85263
2148	-3.72859
2148.24	-1.84611
2148.48	-2.78221
2148.73	-1.83983
2148.97	-0.898109
2149.21	-0.896347
2149.45	0.0424385
2149.69	1.91814
2149.93	-2.78025
2150.17	0.970791
2150.42	0.968102
2150.66	-0.90696
2150.9	1.90834
2151.14	0.0397949
2151.38	-2.7627
2151.62	-2.7508
2151.86	0.0718956
2152.1	1.02165
2152.34	2.90636
2152.58	-0.833664
2152.83	1.04376
2153.07	-3.64304
2153.31	-3.64193
2153.55	-1.76556
2153.79	0.112904
2154.03	0.116383
2154.27	3.86547
2154.51	4.79965
2154.75	-1.76247
2154.99	3.84715
2155.24	-1.77561
2155.48	0.0871544
2155.72	1.95291
2155.96	-0.855419
2156.2	1.01163
2156.44	1.94578
2156.68	-0.854145
2156.92	1.01913
2157.16	1.02462
2157.4	-3.63955
2157.64	2.90848
2157.89	1.05121
2158.13	0.129368
2158.37	-2.66292
2158.61	0.148872
2158.85	-1.71453
2159.09	1.09437
2159.33	2.96678
2159.57	2.03395
2159.81	-3.57159
2160.05	2.03344
2160.29	2.03086
2160.53	-1.70653
2160.77	0.159523
2161.01	-1.70745
2161.25	-2.63802
2161.5	1.09895
2161.74	-1.6973
2161.98	2.03754
2162.22	1.10941
2162.46	0.182411
2162.7	2.98736
2162.94	0.194012
2163.18	0.197079
2163.42	0.198608
2163.66	-3.52952
2163.9	2.06841
2164.14	-4.45635
2164.38	1.13989
2164.62	0.206295
2164.86	1.1352
2165.11	1.1355
2165.35	-0.720753
2165.59	1.15201
2165.83	1.15828
2166.07	-2.56282
2166.31	-4.42047
2166.55	1.1725
2166.79	-2.55211
2167.03	1.17511
2167.27	0.242634
2167.51	2.10575
2167.75	0.241291
2167.99	-2.55514
2168.23	3.94732
2168.47	-1.64254
2168.71	3.00654
2168.95	-0.707329
2169.19	1.15957
2169.43	2.09958
2169.67	-0.677769
2169.91	1.19755
2170.15	-0.646309
2170.39	0.302834
2170.63	3.10949
2170.87	0.324303
2171.11	3.12115
2171.35	-2.46683
2171.59	-2.46418
2171.83	2.18184
2172.07	-2.4872
2172.31	1.22518
2172.56	-0.634792
2172.79	1.2234
2173.04	-2.49242
2173.28	1.22839
2173.51	-3.41228
2173.76	1.23796
2174	-0.612606
2174.24	-0.603168
2174.48	-1.52427
2174.72	1.27056
2174.96	-0.582596
2175.2	-1.5071
2175.44	0.356289
2175.68	5.0059
2175.92	1.29148
2176.16	1.29541
2176.4	-1.48891
2176.64	0.371773
2176.88	0.371601
2177.12	-5.199
2177.36	2.23746
2177.6	5.03024
2177.84	1.32004
2178.08	-1.46254
2178.32	-2.3854
2178.55	1.33218
2178.8	0.399235
2179.03	-0.531025
2179.28	0.401455
2179.52	0.407784
2179.75	-6.08635
2180	0.418346
2180.23	-3.29101
2180.47	-1.42944
2180.71	-0.497093
2180.95	3.21926
2181.19	0.4366
2181.43	-1.41627
2181.67	0.443016
2181.91	-1.41262
2182.15	4.15688
2182.39	-4.19261
2182.63	-0.480114
2182.87	1.37703
2183.11	1.37843
2183.35	1.37634
2183.59	0.44585
2183.83	4.14894
2184.07	0.438148
2184.31	2.29082
2184.55	5.06997
2184.79	4.14616
2185.03	4.15186
2185.27	0.453281
2185.51	-2.32001
2185.75	2.32086
2185.99	-0.451176
2186.23	0.485729
2186.47	1.42339
2186.7	5.14353
2186.95	2.37561
2187.18	-0.393467
2187.42	0.548679
2187.66	0.562656
2187.9	1.50291
2188.14	-1.27737
2188.38	3.36706
2188.62	2.4365
2188.86	-2.208
2189.1	-0.354076
2189.34	7.06588
2189.58	1.49295
2189.82	0.558418
2190.06	1.48044
2190.3	1.48
2190.54	-1.29824
2190.78	0.56049
2191.01	2.42154
2191.25	2.4285
2191.49	4.28687
2191.73	-1.27029
2191.97	0.5909
2192.21	0.597874
2192.45	8.02459
2192.69	-1.24368
2192.93	0.618374
2193.17	-1.22777
2193.41	1.56548
2193.65	1.575
2193.89	-1.19848
2194.13	-2.10994
2194.36	1.62543
2194.6	0.710915
2194.84	-2.06842
2195.08	-4.85523
2195.32	-0.207142
2195.56	-0.206707
2195.8	-0.208054
2196.04	-0.211349
2196.28	-1.14569
2196.52	-1.15299
2196.76	0.696964
2197	-1.16357
2197.23	1.61741
2197.47	-1.16768
2197.71	0.686237
2197.95	-0.237534
2198.19	0.6945
2198.43	3.48458
2198.67	1.64098
2198.91	-1.13121
2199.15	0.738464
2199.38	3.53963
2199.62	-4.80743
2199.86	0.781124
2200.1	-1.0637
2200.34	6.3956
2200.58	-2.8861
2200.82	1.7863
2201.06	-0.990616
2201.3	1.81721
2201.54	3.69296
2201.77	-3.77124
2202.01	-1.0055
2202.25	2.6455
2202.49	-1.1107
2202.73	-0.159603
2202.97	1.75871
2203.21	0.858582
2203.45	4.57228
2203.68	-2.87057
2203.92	2.742
2204.16	1.92505
2204.4	2.81838
2204.64	0.0215187
2204.88	2.82786
2205.12	4.67072
2205.36	3.70958
2205.59	1.82325
2205.83	4.5967
2206.07	1.80503
2206.31	-1.91011
2206.55	3.67958
2206.79	2.75382
2207.03	2.74373
2207.26	-1.89963
2207.5	-2.82199
2207.74	-0.95351
2207.98	-1.87429
2208.22	3.71775
2208.46	0.936508
2208.7	-0.915468
2208.93	1.8861
2209.17	0.962772
2209.41	0.969105
2209.65	2.83662
2209.89	0.0457191
2210.13	3.77273
2210.36	-0.879816
2210.6	1.92136
2210.84	3.79224
2211.08	3.80086
2211.32	2.87758
2211.56	-1.77459
2211.8	1.96213
2212.03	-0.825012
2212.27	-2.68083
2212.51	0.124634
2212.75	-0.803133
2212.99	1.06295
2213.23	1.99489
2213.46	1.06159
2213.7	-1.73857
2213.94	2.92017
2214.18	1.99234
2214.42	3.86683
2214.66	2.01842
2214.89	-0.765684
2215.13	5.77424
2215.37	-0.754522
2215.61	0.183613
2215.85	-4.48056
2216.08	-2.61009
2216.32	-0.740171
2216.56	1.12915
2216.8	-2.60388
2217.04	-1.66923
2217.28	0.199078
2217.51	-5.40001
2217.75	0.205025
2217.99	0.208904
2218.23	0.211155
2218.47	-0.720541
2218.7	2.08426
2218.94	-4.44657
2219.18	1.16323
2219.42	-1.63084
2219.66	0.24572
2219.9	2.12042
2220.13	0.257977
2220.37	1.19811
2220.61	-3.47345
2220.85	-0.668818
2221.09	-1.60227
2221.32	-0.668751
2221.56	1.19439
2221.8	-0.680357
2222.04	3.04995
2222.27	1.1782
2222.51	1.17613
2222.75	0.243858
2222.99	2.11542
2223.23	1.18883
2223.46	0.262077
2223.7	0.269711
2223.94	-1.58888
2224.18	-1.57783
2224.42	-0.6315
2224.65	1.24977
2224.89	-0.610476
2225.13	-3.40806
2225.37	1.27884
2225.6	0.35321
2225.84	1.30082
2226.08	0.373859
2226.32	-2.4273
2226.56	-2.41885
2226.79	-1.47523
2227.03	0.407784
2227.27	2.29093
2227.51	-0.514328
2227.74	2.30454
2227.98	-1.44226
2228.22	1.37216
2228.46	0.433842
2228.69	-2.37951
2228.93	0.433025
2229.17	-3.31689
2229.41	0.433315
2229.64	-2.3773
2229.88	-0.495161
2230.12	0.4529
2230.36	-1.41358
2230.6	0.470394
2230.83	-1.39848
2231.07	0.487015
2231.31	0.495785
2231.55	0.505226
2231.78	-1.36372
2232.02	1.46268
2232.26	2.41097
2232.5	3.35954
2232.73	-0.392179
2232.97	1.49604
2233.21	-1.31728
2233.45	0.571388
2233.68	-0.361717
2233.92	-3.17709
2234.16	0.593452
2234.39	1.54016
2234.63	0.598801
2234.87	-4.108
2235.11	2.47779
2235.34	-0.349409
2235.58	2.46272
2235.82	1.51524
2236.06	-3.18414
2236.29	-0.360046
2236.53	0.583847
2236.77	0.587372
2237	-1.29078
2237.24	4.35628
2237.48	1.54404
2237.72	0.611771
2237.95	3.45025
2238.19	-6.89337
2238.43	-5.93996
2238.67	4.43604
2238.9	-2.15177
2239.14	-0.255039
2239.38	1.64491
2239.61	6.36607
2239.85	-0.239195
2240.09	5.41754
2240.33	0.693768
2240.56	-1.19812
2240.8	4.45577
2241.04	-5.90075
2241.27	0.714756
2241.51	0.71846
2241.75	-0.221378
2241.99	-0.217319
2242.22	-4.93231
2242.46	-5.87221
2242.7	-1.14824
2242.93	0.745262
2243.17	-1.14063
2243.41	3.57987
2243.64	0.744965
2243.88	-1.14598
2244.12	2.628
2244.36	-1.1462
2244.59	-0.199928
2244.83	-2.08131
2245.07	-0.182644
2245.3	-1.11267
2245.54	3.6247
2245.78	-1.09109
2246.01	4.58853
2246.25	0.815693
2246.49	4.60686
2246.72	1.77694
2246.96	0.835835
2247.2	-4.83463
2247.43	1.79515
2247.67	0.853752
2247.91	2.74968
2248.14	1.80428
2248.38	-0.0888004
2248.62	-0.0892544
2248.85	1.80285
2249.09	3.69505
2249.33	6.53319
2249.56	1.80224
2249.8	0.863274
2250.04	0.86882
2250.27	-1.02299
2250.51	0.867325
2250.75	-2.92227
2250.98	-0.0888157
2251.22	-3.87803
2251.46	0.846294
2251.69	0.843071
2251.93	-1.04809
2252.17	0.845505
2252.4	-2.93171
2252.64	0.857222
2252.88	-0.0805531
2253.11	0.877367
2253.35	-2.89038
2253.59	-0.0363922
2253.82	-0.0253639
2254.06	-0.963934
2254.3	0.938955
2254.53	-0.00116158
2254.77	0.952852
2255.01	2.85135
2255.24	0.953287
2255.48	2.85272
2255.72	-0.938198
2255.95	-0.93553
2256.19	-2.82922
2256.42	0.022543
2256.66	1.92735
2256.9	0.985981
2257.13	-0.905024
2257.37	-0.89827
2257.61	-0.891687
2257.84	-2.78418
2258.08	1.96825
2258.32	-0.877069
2258.55	1.02512
2258.79	1.02885
2259.02	0.0837345
2259.26	1.03982
2259.5	-1.804
2259.73	-1.79955
2259.97	2.95602
2260.2	2.01122
2260.44	-0.835184
2260.68	0.120058
2260.91	2.97684
2261.15	-0.819674
2261.39	-0.808197
2261.62	-0.800011
2261.86	2.05737
2262.1	-1.74502
2262.33	0.162283
2262.57	-2.68844
2262.8	-0.779072
2263.04	-3.62701
2263.28	3.04675
2263.51	0.200073
2263.75	0.211578
2263.98	-0.728718
2264.22	-0.714754
2264.46	1.20657
2264.69	-3.55163
2264.93	-0.678118
2265.16	-4.48812
2265.4	2.20416
2265.64	-2.56398
2265.87	1.25949
2266.11	-0.647999
2266.34	-1.60401
2266.58	-2.56403
2266.81	2.20456
2267.05	-1.62039
2267.29	0.283257
2267.52	2.18795
2267.76	-4.49373
2267.99	3.13477
2268.23	-0.686073
2268.47	0.263842
2268.7	-0.689913
2268.94	1.21985
2269.17	5.04077
2269.41	3.14267
2269.65	1.24544
2269.88	-1.6066
2270.12	-1.59582
2270.35	-4.44869
2270.59	5.11527
2270.82	3.2131
2271.06	-0.603405
2271.3	-0.594814
2271.53	-1.54353
2271.77	1.33072
2272	-5.35723
2272.24	-1.52432
2272.47	1.35054
2272.71	-0.560289
2272.95	0.3997
2273.18	-0.55356
2273.42	0.406942
2273.65	3.28119
2273.89	-1.49989
2274.12	1.37467
2274.36	-1.49303
2274.6	3.29586
2274.83	2.34238
2275.07	0.431656
2275.3	-2.43617
2275.54	-1.4753
2275.77	-2.42891
2276.01	2.35914
2276.24	-5.29452
2276.48	-2.41289
2276.72	1.42857
2276.95	-4.31188
2277.18	-0.470512
2277.42	0.497166
2277.66	-2.36737
2277.89	3.40205
2278.13	-0.421335
2278.36	1.51445
2278.6	0.561085
2278.83	-1.35544
2279.07	2.48871
2279.3	-0.391918
2279.54	-2.31276
2279.78	2.4849
2280.01	0.551859
2280.24	0.544348
2280.48	-1.38094
2280.72	0.531981
2280.95	-3.30774
2281.19	-0.433771
2281.42	1.48237
2281.66	0.521599
2281.89	-4.27159
2282.13	0.526115
2282.36	-0.428131
2282.6	-3.29788
2282.83	-6.1671
2283.07	1.51445
2283.3	-1.3541
2283.54	2.49545
2283.77	2.51114
2284.01	-4.19463
2284.24	-0.33708
2284.48	2.56413
2284.71	1.61375
2284.95	-3.18934
2285.19	-0.294472
2285.42	1.63924
2285.65	1.6439
2285.89	-0.277784
2286.12	-0.282457
2286.36	1.63136
2286.59	-3.17664
2286.83	1.63702
2287.06	-0.279467
2287.3	-1.22512
2287.54	-1.21102
2287.77	-1.20432
2288	0.727489
2288.24	-3.1152
2288.47	1.70171
2288.71	1.69881
2288.94	0.732836
2289.18	2.65496
2289.41	3.60925
2289.65	0.711321
2289.88	1.66426
2290.12	1.65253
2290.35	0.688513
2290.59	-3.15794
2290.82	1.65103
2291.06	-0.268827
2291.29	1.66102
2291.53	0.71027
2291.76	-3.12513
2292	1.69524
2292.23	-3.10931
2292.47	-2.13949
2292.7	-0.205841
2292.94	2.69321
2293.17	6.55646
2293.41	-2.10624
2293.64	1.75509
2293.88	-0.166536
2294.11	1.76522
2294.34	1.7649
2294.58	-1.12792
2294.81	0.796602
2295.05	0.792604
2295.28	1.7534
2295.52	-1.13833
2295.75	-1.14051
2295.99	1.74591
2296.22	0.781395
2296.46	-3.07405
2296.69	-1.15936
2296.93	-5.00715
2297.16	-2.11632
2297.39	-0.185354
2297.63	-2.10228
2297.86	0.794744
2298.1	0.806114
2298.33	-3.03389
2298.57	-3.02542
2298.8	5.65407
2299.04	-2.0474
2299.27	-1.07342
2299.51	-0.100246
2299.74	-0.0924644
2299.97	-0.0871696
2300.21	-1.05013
2300.44	2.8108
2300.68	0.882853
2300.91	-1.04068
2301.15	-1.9982
2301.38	0.902933
2301.61	-1.98675
2301.85	-1.01733
2302.08	-2.94506
2302.32	-1.01336
2302.55	-3.90953
2302.79	4.77667
2303.02	0.919125
2303.25	3.81585
2303.49	-3.90464
2303.72	-1.00782
2303.96	4.78538
2304.19	-1.00009
2304.43	-0.0274048
2304.66	1.91074
2304.89	3.84787
2305.13	3.85508
2305.36	4.8299
2305.6	0.00561333
2305.83	3.87383
2306.07	0.980076
2306.3	2.919
2306.53	1.95878
2306.77	-1.90394
2307	0.998327
2307.24	-0.933292
2307.47	-2.86543
2307.7	0.0332031
2307.94	-0.935207
2308.17	3.89575
2308.41	0.995806
2308.64	1.96105
2308.87	-1.90161
2309.11	-0.932236
2309.34	0.0405388
2309.58	1.01425
2309.81	-1.87599
2310.04	2.00342
2310.28	-0.889355
2310.51	2.9849
2310.75	-2.8168
2310.98	1.05362
2311.21	-2.81728
2311.45	2.98009
2311.68	1.99547
2311.92	1.00956
2312.15	0.999657
2312.38	1.95834
2312.62	-0.940521
2312.85	0.985649
2313.08	5.80739
2313.32	0.0191193
2313.55	-1.90567
2313.79	-1.89514
2314.02	-1.88211
2314.25	-3.80384
2314.49	-0.895409
2314.72	3.9483
2314.95	1.06222
2315.19	1.07465
2315.42	1.08162
2315.66	2.04149
2315.89	2.03437
2316.12	2.99562
2316.36	1.05449
2316.59	2.00386
2316.82	1.99545
2317.06	4.88861
2317.29	3.92336
2317.52	0.0638313
2317.76	1.03238
2317.99	2.0081
2318.23	1.049
2318.46	5.86792
2318.69	2.00004
2318.93	1.99649
2319.16	0.0612907
2319.39	3.91771
2319.63	0.0529327
2319.86	1.0152
2320.09	1.01356
2320.33	2.94425
2320.56	1.01598
2320.79	1.98134
2321.03	0.0550785
2321.26	1.02559
2321.5	4.89307
2321.73	2.9693
2321.96	6.84041
2322.2	2.98756
2322.43	10.7297
2322.66	6.87468
2322.9	8.81238
2323.13	4.94403
2323.36	9.77967
2323.6	3.01521
2323.83	5.91805
2324.06	11.7225
2324.3	10.757
2324.53	10.7552
2324.76	12.687
2325	12.6761
2325.23	20.3934
2325.46	23.2727
2325.7	20.3622
2325.93	25.1799
2326.16	32.8919
2326.4	46.3918
2326.63	49.2698
2326.86	76.2672
2327.09	110.005
2327.33	148.551
2327.56	201.541
2327.79	269.955
2328.03	308.461
2328.26	272.761
2328.49	242.897
2328.73	160.971
2328.96	106.998
2329.19	78.0582
2329.43	57.8021
2329.66	45.2547
2329.89	36.5778
2330.13	25.0159
2330.36	15.3895
2330.59	21.164
2330.82	18.2688
2331.06	13.4474
2331.29	7.66616
2331.52	6.7041
2331.76	5.74477
2331.99	6.71254
2332.22	3.82905
2332.46	3.8173
2332.69	4.77137
2332.92	4.76394
2333.16	3.79379
2333.39	1.86121
2333.62	3.77996
2333.85	-0.0766678
2334.09	1.84279
2334.32	3.76022
2334.55	6.63814
2334.79	2.77765
2335.02	2.76966
2335.25	2.76318
2335.48	1.79731
2335.72	3.71557
2335.95	2.75212
2336.18	-0.133881
2336.41	3.70859
2336.65	2.73981
2336.88	4.65718
2337.11	-1.11708
2337.34	0.80102
2337.58	1.75704
2337.81	3.67454
2338.04	-1.139
2338.28	2.69979
2338.51	2.69411
2338.74	2.68819
2338.97	4.60509
2339.21	-0.203903
2339.44	-4.05251
2339.67	1.70999
2339.91	0.743017
2340.14	-4.07004
2340.37	-1.19545
2340.6	-3.12731
2340.84	4.54798
2341.07	-3.14907
2341.3	-0.281889
2341.53	6.42175
2341.77	-1.27456
2342	6.38487
2342.23	3.49489
2342.46	1.56527
2342.7	3.47166
2342.93	0.585531
2343.16	0.577343
2343.39	6.32187
2343.63	-3.27034
2343.86	5.34879
2344.09	1.50643
2344.32	0.541456
2344.56	3.41254
2344.79	2.448
2345.02	-2.35338
2345.25	0.513025
2345.49	3.37751
2345.72	6.23917
2345.95	2.38912
2346.18	1.41696
2346.41	2.36043
2346.65	2.34974
2346.88	3.29712
2347.11	1.37177
2347.34	1.36029
2347.58	3.26375
2347.81	-1.53283
2348.04	-1.54112
2348.27	1.32405
2348.5	2.27635
2348.74	2.26971
2348.97	3.21764
2349.2	2.24698
2349.43	-4.47068
2349.67	2.20678
2349.9	-0.688005
2350.13	1.19822
2350.36	4.99014
2350.59	0.177999
2350.83	2.03255
2351.06	-0.905603
2351.29	0.0857277
2351.52	-0.771564
2351.75	4.99389
2351.99	6.81709
2352.22	1.98988
2352.45	-0.882475
2352.68	1.01847
2352.91	-1.87621
2353.15	-0.0101376
2353.38	-1.95046
2353.61	3.76061
2353.84	0.886471
2354.07	1.81938
2354.31	0.853943
2354.54	3.69641
2354.77	-0.119167
2355	-1.07841
2355.23	0.812256
2355.47	-3.01559
2355.7	1.731
2355.93	2.66563
2356.16	-3.06875
2356.39	-1.18416
2356.63	2.59872
2356.86	2.56662
2357.09	-0.316273
2357.32	6.31865
2357.55	-0.360504
2357.79	4.37158
2358.02	-7.05783
2358.25	-0.424879
2358.48	0.505035
2358.71	2.3859
2358.94	0.460625
2359.18	1.38968
2359.41	-7.18027
2359.64	-1.50041
2359.87	-1.52259
2360.1	-0.596952
2360.33	2.22569
2360.57	2.19848
2360.8	-2.57374
2361.03	0.246037
2361.26	1.16715
2361.49	2.08713
2361.72	-7.42253
2361.96	1.08117
2362.19	-1.79111
2362.42	1.02114
2362.65	2.88522
2362.88	0.0149536
2363.11	0.933212
2363.34	-0.98778
2363.58	-0.0686493
2363.81	4.63635
2364.04	-0.12141
2364.27	1.74386
2364.5	1.71549
2364.73	-1.15051
2364.97	-2.12481
