#Acq. time (s)=	30
#Accumulations=	2
#Range (cm-¹)=	1200...2365
#Windows=	3
#Auto scanning=	Off
#Autofocus=	Off
#Macrospot=	Off
#AutoExposure=	Off
#Spike filter=	Multiple accum.
#Delay time (s)=	2
#Binning=	1
#Readout mode=	Signal
#DeNoise=	Off
#ICS correction=	On
#Dark correction=	Off
#Inst. Process=	Off
#Detector Gain=	Best Dynamic
#Detector ADC=	50 kHz HS
#Detector temperature (°C)=	-60.09
#Instrument=	LabRAM HR Evol
#Detector=	SIN-EM FIVIS
#Objective=	x100_VIS_LWD
#Grating=	1800 (450-850nm)
#ND Filter=	100%
#Laser=	532nm_Edge
#Hole=	100.021
#Temperature=	0
#Range=	Visible
#StageXY=	75x50mm Scan+
#StageZ=	Z motor
#X (µm)=	0
#Y (µm)=	0
#Z (µm)=	-9.7
#Full time(mm:ss)=	3:23
#Project=	21_11_26
#Sample=	BU19(2)w
#Site=	
#Title=	BU19(2)w-A-FF1-FI05-V_1800 (450-850nm)_532nm_Edge_100%_x100_VIS_LWD_H100um_30sX2
#Remark=	
#Date=	26.11.2021 13:31
#Acquired=	26.11.2021 13:31:21
#Base:Fit=	16.12.2021 16:00:56
#Base:Fit=	16.12.2021 16:07:13
#Base:Sub=	16.12.2021 16:07:14
1202.72	10.7998
1203	16.6642
1203.28	5.15173
1203.56	10.7551
1203.84	2.34322
1204.11	4.72416
1204.39	9.26133
1204.67	3.09856
1204.95	1.24087
1205.23	7.9445
1205.5	3.87605
1205.78	5.17357
1206.06	3.24062
1206.34	-1.91353
1206.61	4.73438
1206.89	2.79721
1207.17	0.861336
1207.45	5.35944
1207.73	0.230255
1208	0.455864
1208.28	1.75833
1208.56	3.05338
1208.84	6.47468
1209.11	0.268761
1209.39	-0.586342
1209.67	0.708496
1209.95	7.35561
1210.23	0.096199
1210.5	-1.83115
1210.78	1.55986
1211.06	-3.59566
1211.34	-2.33574
1211.61	2.11857
1211.89	5.50829
1212.17	0.350487
1212.45	1.59295
1212.72	-2.48396
1213	-2.30061
1213.28	-5.31562
1213.56	-6.19111
1213.83	3.58685
1214.11	0.575722
1214.39	-5.60201
1214.67	5.24992
1214.94	-0.936813
1215.22	-1.80441
1215.5	-1.61233
1215.78	-2.48792
1216.05	1.954
1216.33	-5.33208
1216.61	-8.36988
1216.89	3.4729
1217.16	-0.636284
1217.44	6.95382
1217.72	2.85569
1218	-0.180992
1218.27	-2.15023
1218.55	2.24978
1218.83	-0.781464
1219.1	1.50195
1219.38	9.09366
1219.66	7.13081
1219.94	1.9808
1220.21	-2.1139
1220.49	-5.13434
1220.77	4.57493
1221.04	0.488197
1221.32	-6.78547
1221.6	6.07955
1221.88	-6.50399
1222.15	-5.31615
1222.43	-10.4964
1222.71	8.67503
1222.98	-0.75386
1223.26	-6.9989
1223.54	6.85275
1223.81	5.89786
1224.09	1.77956
1224.37	-2.33749
1224.65	2.00545
1224.92	-6.31942
1225.2	-1.97035
1225.48	6.60912
1225.76	2.53556
1226.03	0.569496
1226.31	5.99564
1226.59	6.12194
1226.86	-10.6477
1227.14	1.07712
1227.42	9.63194
1227.69	-5.0648
1227.97	0.241615
1228.25	-0.746124
1228.52	6.68967
1228.8	-5.90653
1229.08	8.85644
1229.35	-0.489441
1229.63	-4.34695
1229.91	-0.867271
1230.18	8.64983
1230.46	-1.87073
1230.74	6.63503
1231.01	2.54515
1231.29	0.492859
1231.57	1.46434
1231.84	2.64172
1232.12	-1.45578
1232.4	2.85072
1232.67	2.94446
1232.95	-4.30797
1233.23	1.043
1233.5	4.28732
1233.78	2.28506
1234.06	5.54196
1234.33	-1.70409
1234.61	8.91031
1234.89	0.615608
1235.16	3.88044
1235.44	3.98265
1235.71	4.08576
1235.99	12.6016
1236.27	-3.069
1236.54	-2.97945
1236.82	9.71469
1237.1	0.32756
1237.37	7.75145
1237.65	9.90564
1237.93	2.60392
1238.2	0.555603
1238.48	-3.59135
1238.76	4.8523
1239.03	7.00484
1239.31	2.8752
1239.58	11.3304
1239.86	3.0134
1240.14	4.13472
1240.41	5.25827
1240.69	1.14279
1240.97	-2.9706
1241.24	3.3998
1241.52	-0.715157
1241.79	2.49572
1242.07	7.79232
1242.35	13.0934
1242.62	2.68814
1242.9	6.95731
1243.18	12.2826
1243.45	6.07671
1243.73	16.6271
1244	9.35809
1244.28	-1.05096
1244.56	11.5948
1244.83	4.31657
1245.11	11.7098
1245.39	10.7044
1245.66	2.3615
1245.94	7.6286
1246.21	13.9403
1246.49	3.51946
1246.76	8.80707
1247.04	8.86845
1247.32	8.92667
1247.59	6.88457
1247.87	3.80134
1248.14	3.84945
1248.42	11.1947
1248.7	6.00258
1248.97	13.3753
1249.25	2.97846
1249.52	8.27029
1249.8	4.13478
1250.08	5.23172
1250.35	5.28643
1250.63	3.22812
1250.9	2.21063
1251.18	9.55816
1251.45	5.41008
1251.73	8.57859
1252.01	12.7903
1252.28	2.37728
1252.56	7.63036
1252.83	13.9251
1253.11	9.77628
1253.39	11.8923
1253.66	7.75567
1253.94	17.1942
1254.21	6.82094
1254.49	6.88512
1254.76	3.8192
1255.04	2.82765
1255.31	6.00479
1255.59	12.322
1255.87	8.18852
1256.14	8.22701
1256.42	16.628
1256.69	12.5014
1256.97	13.6028
1257.24	28.273
1257.52	17.8628
1257.79	13.7108
1258.07	17.919
1258.35	15.8625
1258.62	20.0696
1258.9	19.0523
1259.17	12.8033
1259.45	18.0577
1259.72	24.3711
1260	18.1614
1260.27	6.75441
1260.55	21.3847
1260.82	30.7895
1261.1	27.6523
1261.37	38.0924
1261.65	37.0645
1261.92	35.0307
1262.2	41.4406
1262.48	36.4177
1262.75	49.0848
1263.02	50.9827
1263.3	42.5032
1263.58	41.4341
1263.85	35.3317
1264.13	34.4145
1264.4	31.4259
1264.68	27.334
1264.95	23.1118
1265.23	31.4775
1265.5	29.4185
1265.78	23.1691
1266.05	21.0903
1266.33	25.2999
1266.6	30.5633
1266.88	11.7979
1267.15	22.2994
1267.43	15.0362
1267.7	16.1389
1267.98	16.1986
1268.25	16.262
1268.53	13.1962
1268.8	24.7818
1269.08	17.4999
1269.35	13.3545
1269.63	9.20412
1269.9	16.5604
1270.18	20.755
1270.45	24.9382
1270.73	16.5659
1271	7.14733
1271.28	15.5303
1271.55	15.5502
1271.83	22.8872
1272.1	12.4579
1272.38	18.7872
1272.65	27.2187
1272.93	29.3833
1273.2	17.9157
1273.47	22.1604
1273.75	23.2635
1274.03	27.5117
1274.3	29.6646
1274.57	26.5624
1274.85	18.2011
1275.12	28.7105
1275.4	20.3444
1275.67	21.4297
1275.95	23.5704
1276.22	21.5154
1276.5	26.8138
1276.77	23.7092
1277.05	17.4544
1277.32	24.8441
1277.6	33.299
1277.87	29.149
1278.14	41.8117
1278.42	29.247
1278.69	32.4461
1278.97	36.7101
1279.24	40.9606
1279.52	49.4208
1279.79	53.6441
1280.07	63.1225
1280.34	83.1106
1280.61	107.316
1280.89	151.529
1281.16	210.48
1281.44	275.81
1281.71	374.879
1281.99	473.912
1282.26	598.129
1282.53	672.958
1282.81	737.29
1283.08	726.649
1283.36	636.842
1283.63	526.906
1283.91	402.706
1284.18	273.468
1284.45	196.931
1284.73	145.916
1285	94.3471
1285.28	81.7211
1285.55	60.5976
1285.83	54.252
1286.1	61.6468
1286.37	39.5857
1286.65	29.0757
1286.92	24.8643
1287.2	31.202
1287.47	30.1636
1287.75	30.1685
1288.02	15.4352
1288.29	18.603
1288.57	18.6237
1288.84	22.8578
1289.12	10.2578
1289.39	21.8727
1289.66	17.7025
1289.94	25.1143
1290.21	16.7335
1290.49	15.7194
1290.76	11.5272
1291.03	9.43164
1291.31	10.5014
1291.58	15.7877
1291.86	14.7553
1292.13	5.29465
1292.4	16.9024
1292.68	11.6645
1292.95	14.8404
1293.22	6.42941
1293.5	18.041
1293.77	8.61494
1294.05	16.0535
1294.32	11.9009
1294.59	0.334587
1294.87	13.0112
1295.14	16.1899
1295.42	6.73833
1295.69	7.85453
1295.96	3.70483
1296.24	13.2987
1296.51	2.79304
1296.79	8.1096
1297.06	9.19139
1297.33	7.08972
1297.61	14.4933
1297.88	9.21294
1298.15	12.3829
1298.43	9.21174
1298.7	11.3578
1298.97	14.5409
1299.25	3.98851
1299.52	5.05482
1299.79	9.28537
1300.07	10.3629
1300.34	8.29102
1300.62	8.32368
1300.89	2.01396
1301.16	5.20061
1301.44	6.27618
1301.71	4.1923
1301.98	1.06243
1302.25	11.6612
1302.53	8.5241
1302.8	1.15594
1303.08	0.122093
1303.35	2.25265
1303.62	0.154442
1303.9	7.5547
1304.17	6.51924
1304.44	-1.90229
1304.72	7.62534
1304.99	6.59216
1305.26	0.270332
1305.54	-4.99862
1305.81	14.0047
1306.08	10.8415
1306.35	1.34847
1306.63	0.301392
1306.9	-0.736252
1307.18	1.39738
1307.45	2.48431
1307.72	4.62106
1308	3.59004
1308.27	2.55953
1308.54	1.53453
1308.81	13.1563
1309.09	3.69377
1309.36	-6.81652
1309.63	-0.449745
1309.91	0.64299
1310.18	9.11938
1310.45	0.699829
1310.73	1.77528
1311	0.745949
1311.27	-0.279961
1311.55	-1.30482
1311.82	0.835762
1312.09	2.97975
1312.37	-2.25746
1312.64	-1.16346
1312.91	-2.18739
1313.18	-6.38793
1313.46	7.3507
1313.73	-2.12711
1314	-1.05207
1314.28	-5.25344
1314.55	10.6061
1314.82	3.24968
1315.09	-1.99314
1315.37	2.26746
1315.64	-1.91873
1315.91	2.34368
1316.18	-6.0676
1316.46	-0.762466
1316.73	-2.85223
1317	3.50852
1317.28	-4.91462
1317.55	7.78606
1317.82	0.433533
1318.09	1.52605
1318.37	-0.552979
1318.64	3.70432
1318.91	3.73465
1319.18	2.70695
1319.46	-2.54905
1319.73	-5.6929
1320	5.95298
1320.28	-4.57642
1320.55	-0.32074
1320.82	-1.35271
1321.09	1.83331
1321.37	6.06778
1321.64	-5.54102
1321.91	0.796249
1322.18	-1.2996
1322.46	-5.51272
1322.73	-4.4388
1323	1.90778
1323.27	6.14314
1323.55	4.04738
1323.82	-1.18455
1324.09	-0.0964127
1324.36	-8.50032
1324.64	-1.09127
1324.91	2.10378
1325.18	-3.14028
1325.45	7.44048
1325.73	1.1228
1326	1.11602
1326.27	1.09895
1326.54	-2.08639
1326.81	8.44225
1327.09	4.2584
1327.36	-0.94342
1327.63	-0.858536
1327.9	0.255333
1328.18	3.47726
1328.45	2.48781
1328.72	4.66182
1328.99	0.501488
1329.27	3.7064
1329.54	0.562965
1329.81	-2.56136
1330.08	4.85252
1330.35	4.87796
1330.63	-7.75848
1330.9	-1.41198
1331.17	0.710228
1331.44	0.718269
1331.71	-0.334373
1331.99	1.7693
1332.26	0.720619
1332.53	4.94084
1332.8	3.89555
1333.07	1.79562
1333.35	4.95393
1333.62	-1.34779
1333.89	-0.287827
1334.16	6.02573
1334.43	-1.31658
1334.71	-8.65355
1334.98	-4.43856
1335.25	8.17323
1335.52	1.89413
1335.79	-3.33296
1336.07	-1.21462
1336.34	-3.29097
1336.61	0.926125
1336.88	3.0464
1337.15	-5.31551
1337.43	2.04959
1337.7	-3.16351
1337.97	-7.32947
1338.24	0.0219193
1338.51	1.08573
1338.78	6.34579
1339.06	3.22476
1339.33	9.53353
1339.6	-2.99886
1339.87	3.32215
1340.14	2.31509
1340.42	-1.83621
1340.69	-0.750351
1340.96	10.8081
1341.23	-0.677887
1341.5	2.49606
1341.77	0.431793
1342.04	-2.68227
1342.32	-1.61179
1342.59	3.64087
1342.86	0.51577
1343.13	5.76147
1343.4	5.78593
1343.67	-6.73462
1343.95	-0.425491
1344.22	0.656281
1344.49	-3.48893
1344.76	11.1899
1345.03	-0.285011
1345.3	-5.4891
1345.58	-1.28716
1345.85	-2.31994
1346.12	1.87677
1346.39	1.88627
1346.66	3.97076
1346.93	3.98135
1347.2	-1.22261
1347.47	8.17693
1347.75	0.891571
1348.02	4.04185
1348.29	0.941841
1348.56	14.5218
1348.83	8.29977
1349.1	-0.0121078
1349.37	3.13677
1349.65	5.24191
1349.92	6.30595
1350.19	-0.960007
1350.46	7.39286
1350.73	7.41528
1351	5.35125
1351.27	2.24725
1351.54	-2.92849
1351.81	6.44983
1352.09	7.52177
1352.36	7.55899
1352.63	5.52788
1352.9	5.58488
1353.17	-0.593475
1353.44	1.5392
1353.71	12.0616
1353.98	0.717537
1354.25	5.88968
1354.53	5.80231
1354.8	6.794
1355.07	2.68661
1355.34	3.77179
1355.61	6.89867
1355.88	5.88393
1356.15	10.1077
1356.42	7.03718
1356.69	-0.213097
1356.96	13.3218
1357.24	8.16055
1357.51	9.23026
1357.78	7.18193
1358.05	8.24667
1358.32	8.27168
1358.59	9.33382
1358.86	8.32135
1359.13	8.34382
1359.4	7.32996
1359.67	8.39496
1359.94	7.38708
1360.22	11.5522
1360.49	2.23824
1360.76	6.4007
1361.03	11.6049
1361.3	9.56643
1361.57	6.49794
1361.84	17.929
1362.11	8.64234
1362.38	9.70823
1362.65	9.73922
1362.92	13.913
1363.19	23.2689
1363.46	15.0323
1363.73	13.0176
1364	5.81938
1364.28	20.3729
1364.55	19.3767
1364.82	19.4112
1365.09	9.08482
1365.36	14.2879
1365.63	13.2733
1365.9	15.3629
1366.17	19.5223
1366.44	12.2997
1366.71	13.3539
1366.98	11.3008
1367.25	17.5137
1367.52	12.3725
1367.79	15.5053
1368.06	19.6928
1368.33	23.8761
1368.6	40.4629
1368.87	61.187
1369.15	44.6951
1369.41	28.2033
1369.68	22.0479
1369.95	20.0097
1370.23	9.70255
1370.5	20.0705
1370.77	23.1871
1371.04	13.9165
1371.31	23.2389
1371.58	17.0561
1371.85	18.0989
1372.12	21.1993
1372.39	19.1405
1372.66	20.1802
1372.93	18.1344
1373.2	24.345
1373.47	31.5882
1373.74	23.3715
1374.01	22.3724
1374.28	27.5577
1374.55	35.8345
1374.82	29.6874
1375.09	23.5399
1375.36	25.6292
1375.63	24.6445
1375.9	22.6383
1376.17	25.7682
1376.44	34.0577
1376.71	33.0415
1376.98	28.9378
1377.25	42.3269
1377.52	31.0013
1377.79	43.4056
1378.06	44.507
1378.33	39.4472
1378.6	46.7575
1378.87	38.6191
1379.14	50.0212
1379.41	54.1823
1379.68	44.9294
1379.95	53.1998
1380.22	52.1843
1380.49	53.2017
1380.76	53.1406
1381.03	56.2098
1381.3	65.4583
1381.57	61.4087
1381.84	63.4719
1382.11	60.3662
1382.38	76.7779
1382.65	64.4339
1382.92	78.7961
1383.19	76.7271
1383.46	78.7781
1383.73	106.465
1384	108.525
1384.27	133.146
1384.54	157.801
1384.81	185.547
1385.08	249.218
1385.34	325.258
1385.61	473.23
1385.88	693.084
1386.15	988.987
1386.42	1399.91
1386.69	1646.75
1386.96	1596.62
1387.23	1253.58
1387.5	817.402
1387.77	517.643
1388.04	333.635
1388.31	223.062
1388.58	155.916
1388.85	129.668
1389.12	97.1218
1389.39	92.1364
1389.66	68.5746
1389.93	70.6865
1390.2	56.3075
1390.46	48.0416
1390.73	42.9117
1391	42.9487
1391.27	37.818
1391.54	35.7996
1391.81	32.7564
1392.08	37.896
1392.35	33.8111
1392.62	32.8043
1392.89	25.6602
1393.16	32.8538
1393.43	33.906
1393.7	26.7715
1393.97	30.8969
1394.23	18.6487
1394.5	27.8927
1394.77	26.904
1395.04	18.755
1395.31	19.8288
1395.58	29.0961
1395.85	24.0305
1396.12	25.0994
1396.39	20.0188
1396.66	20.0513
1396.93	15.9871
1397.2	23.1792
1397.46	25.2477
1397.73	12.9951
1398	16.0957
1398.27	20.226
1398.54	23.3411
1398.81	19.3005
1399.08	11.1622
1399.35	20.4148
1399.62	18.4239
1399.89	19.4969
1400.16	24.6632
1400.42	26.7493
1400.69	14.5187
1400.96	18.6759
1401.23	21.7985
1401.5	24.9066
1401.77	19.8372
1402.04	14.7552
1402.31	10.726
1402.58	12.8621
1402.84	13.9785
1403.11	18.1602
1403.38	20.2811
1403.65	19.3076
1403.92	19.3478
1404.19	20.3947
1404.46	14.2273
1404.73	15.3051
1404.99	27.6475
1405.26	26.649
1405.53	26.6707
1405.8	28.7424
1406.07	33.8902
1406.34	44.1632
1406.61	42.1399
1406.87	43.1945
1407.14	56.5633
1407.41	66.8617
1407.68	69.9874
1407.95	74.1354
1408.22	72.1317
1408.49	78.3305
1408.76	67.0983
1409.02	68.1722
1409.29	54.8906
1409.56	38.5282
1409.83	31.3947
1410.1	28.3607
1410.37	28.3989
1410.63	24.3148
1410.9	12.0225
1411.17	16.135
1411.44	22.3013
1411.71	12.0767
1411.98	16.2013
1412.25	16.2358
1412.51	8.08817
1412.78	8.14791
1413.05	9.25931
1413.32	12.4714
1413.59	5.36684
1413.86	9.45262
1414.12	8.36018
1414.39	11.4908
1414.66	13.6344
1414.93	8.57629
1415.2	7.58129
1415.47	7.62052
1415.73	1.49745
1416	4.61599
1416.27	15.9534
1416.54	6.75532
1416.81	8.85315
1417.07	10.9516
1417.34	9.97013
1417.61	4.87863
1417.88	4.92262
1418.15	10.1003
1418.42	0.889656
1418.68	7.09389
1418.95	4.05028
1419.22	-1.0518
1419.49	9.26231
1419.76	8.26166
1420.02	3.14558
1420.29	5.22079
1420.56	4.21528
1420.83	11.4233
1421.1	1.17483
1421.36	6.32896
1421.63	6.35724
1421.9	8.44914
1422.17	5.42413
1422.44	11.646
1422.7	4.51572
1422.97	9.72936
1423.24	3.65758
1423.51	6.84488
1423.77	10.8108
1424.04	6.57887
1424.31	5.60754
1424.58	6.59499
1424.85	3.55577
1425.11	9.759
1425.38	9.84686
1425.65	5.78775
1425.92	0.683342
1426.19	2.79221
1426.45	2.82051
1426.72	13.0976
1426.99	1.83057
1427.26	4.91991
1427.52	4.9316
1427.79	5.95937
1428.06	0.847488
1428.33	2.91713
1428.59	6.01675
1428.86	8.09808
1429.13	6.08727
1429.4	-0.0185089
1429.67	0.0217133
1429.93	5.186
1430.2	-2.96281
1430.47	4.26042
1430.74	2.25745
1431	-2.81621
1431.27	0.321373
1431.54	0.376221
1431.81	1.44596
1432.07	0.451248
1432.34	-1.58205
1432.61	-2.59234
1432.87	1.53223
1433.14	7.69563
1433.41	4.62323
1433.68	1.54955
1433.95	6.67493
1434.21	-8.67346
1434.48	6.71075
1434.75	2.67792
1435.01	2.72294
1435.28	4.80579
1435.55	0.737511
1435.82	5.88963
1436.08	3.86713
1436.35	5.94187
1436.62	1.86849
1436.89	-1.18136
1437.15	-3.20687
1437.42	1.93861
1437.69	7.08765
1437.95	1.98802
1438.22	-0.0344543
1438.49	-1.02592
1438.76	2.08618
1439.02	3.14591
1439.29	14.4464
1439.56	5.25871
1439.82	11.4468
1440.09	6.3686
1440.36	-5.88519
1440.63	5.42968
1440.89	-0.690018
1441.16	3.44099
1441.43	2.44753
1441.69	2.47028
1441.96	3.51218
1442.23	0.458305
1442.49	3.57588
1442.76	7.70726
1443.03	-0.455704
1443.3	5.71653
1443.56	6.75706
1443.83	7.7991
1444.1	0.642921
1444.36	-1.38278
1444.63	1.72375
1444.9	1.76997
1445.16	1.81316
1445.43	1.86141
1445.7	0.856438
1445.97	2.92826
1446.23	0.897095
1446.5	-2.15936
1446.77	-0.0868378
1447.03	3.01073
1447.3	8.1587
1447.57	6.12637
1447.83	5.11771
1448.1	2.06061
1448.37	7.21149
1448.63	5.199
1448.9	11.3938
1449.17	2.19267
1449.43	2.21677
1449.7	1.21052
1449.97	-2.8751
1450.23	-0.810081
1450.5	7.40498
1450.77	1.27299
1451.03	2.31729
1451.3	6.43581
1451.57	-1.74464
1451.83	-2.75168
1452.1	5.46333
1452.37	-2.71462
1452.63	0.38002
1452.9	7.57632
1453.17	0.431343
1453.43	-0.562241
1453.7	7.66576
1453.97	-3.58345
1454.23	4.63347
1454.5	2.60328
1454.77	-0.447815
1455.03	4.69875
1455.3	-3.47811
1455.56	1.66358
1455.83	-0.361809
1456.1	3.77131
1456.36	-0.299637
1456.63	1.77234
1456.9	-5.38523
1457.16	4.87362
1457.43	1.81077
1457.7	-1.24576
1457.96	0.82061
1458.23	2.88824
1458.49	0.861351
1458.76	-1.16452
1459.03	1.93375
1459.29	8.10538
1459.56	-1.09214
1459.82	0.979355
1460.09	-0.026886
1460.36	1.01418
1460.62	-2.04319
1460.89	0.0209351
1461.16	-4.06263
1461.42	-2.00196
1461.69	0.0581436
1461.95	0.0689163
1462.22	1.10177
1462.49	1.10968
1462.75	-1.95366
1463.02	0.0987244
1463.28	6.24061
1463.55	4.19798
1463.82	6.24769
1464.08	2.17496
1464.35	1.19212
1464.61	1.24136
1464.88	2.3072
1465.15	1.33331
1465.41	2.32507
1465.68	7.33005
1465.94	8.31081
1466.21	1.1787
1466.48	2.23792
1466.74	2.24983
1467.01	4.27932
1467.27	-0.812538
1467.54	-4.86953
1467.8	2.28569
1468.07	-6.88231
1468.34	-0.746883
1468.6	6.40979
1468.87	-0.714691
1469.13	0.318851
1469.4	-1.71018
1469.67	-0.681007
1469.93	3.40208
1470.2	-0.674297
1470.46	2.38788
1470.73	-1.68065
1470.99	0.36636
1471.26	1.39685
1471.53	-7.76404
1471.79	3.44468
1472.06	0.396461
1472.32	-9.7751
1472.59	-3.65178
1472.85	-1.60123
1473.12	-0.569237
1473.39	-2.59472
1473.65	3.51974
1473.92	2.50725
1474.18	2.51454
1474.45	-0.528015
1474.71	-0.513176
1474.98	-1.51031
1475.24	-6.58043
1475.51	3.61333
1475.78	8.71487
1476.04	4.65203
1476.31	-3.48331
1476.57	1.61256
1476.84	0.603703
1477.1	-3.46135
1477.37	2.64529
1477.63	-3.44828
1477.9	1.64821
1478.16	-5.45831
1478.43	-0.367271
1478.69	-5.4492
1478.96	2.68763
1479.22	-1.37417
1479.49	1.67701
1479.76	5.74183
1480.02	5.73997
1480.29	1.67612
1480.55	-4.42554
1480.82	1.65968
1481.08	-1.38464
1481.35	-2.39243
1481.61	1.66745
1481.88	-0.343395
1482.14	-4.38001
1482.41	1.73225
1482.67	-1.2877
1482.94	3.81028
1483.2	6.8677
1483.47	1.81102
1483.73	0.811493
1484	3.86962
1484.26	-3.22936
1484.53	1.833
1484.79	4.85157
1485.06	0.736683
1485.32	6.73402
1485.59	-3.4045
1485.85	5.65754
1486.12	1.77459
1486.38	2.81698
1486.65	-2.2165
1486.91	5.83152
1487.18	4.86375
1487.44	-4.23624
1487.71	-5.25652
1487.97	-0.195435
1488.24	2.84402
1488.5	5.88097
1488.77	0.813896
1489.03	0.808197
1489.3	-2.22987
1489.56	-0.203423
1489.83	-3.23459
1490.09	0.817307
1490.36	-1.19725
1490.62	-2.20067
1490.89	2.85861
1491.15	4.87718
1491.42	4.87275
1491.68	-2.20224
1491.95	2.85873
1492.21	-4.2099
1492.48	-8.24303
1492.74	2.88471
1493	-0.143383
1493.27	5.92831
1493.53	-1.1402
1493.8	-2.14737
1494.06	3.92323
1494.33	0.899429
1494.59	-3.13222
1494.86	-2.10854
1495.12	5.98428
1495.39	-1.09481
1495.65	-2.11596
1495.92	-1.12031
1496.18	1.89877
1496.45	-1.13493
1496.71	2.90185
1496.97	3.91014
1497.24	2.89864
1497.5	-1.13226
1497.77	1.90171
1498.03	0.895405
1498.3	4.93718
1498.56	5.95342
1498.82	-1.10331
1499.09	-0.0856972
1499.35	-3.10473
1499.62	-0.0666351
1499.88	6.00167
1500.15	5.00392
1500.41	-2.05491
1500.68	7.03664
1500.94	-5.07465
1501.2	8.05288
1501.47	-3.05273
1501.73	1.9873
1502	-2.04803
1502.26	1.99195
1502.52	-2.04181
1502.79	3.00253
1503.05	4.00243
1503.32	3.99422
1503.58	2.98279
1503.85	6.00068
1504.11	0.963581
1504.37	3.99943
1504.64	-0.0267982
1504.9	5.02035
1505.17	3.00483
1505.43	-0.0225906
1505.7	5.01286
1505.96	-1.04925
1506.22	4.9781
1506.49	3.96997
1506.75	1.95697
1507.02	5.99345
1507.28	-2.05389
1507.54	2.99039
1507.81	4.0046
1508.07	2.99984
1508.34	0.983524
1508.6	1.99099
1508.86	-1.02729
1509.13	-1.02187
1509.39	3.01278
1509.66	-1.01569
1509.92	-2.02062
1510.18	-2.01109
1510.45	-7.04342
1510.71	1.00972
1510.98	4.0224
1511.24	1.9952
1511.5	3.9936
1511.77	0.949753
1512.03	3.93694
1512.29	0.888168
1512.56	4.87919
1512.82	3.84847
1513.08	5.84198
1513.35	-0.196194
1513.61	2.80545
1513.88	-2.21713
1514.14	-3.20533
1514.4	3.85036
1514.67	1.84943
1514.93	4.85696
1515.2	-3.19047
1515.46	6.83455
1515.72	-4.22223
1515.99	-2.2318
1516.25	4.77312
1516.51	-1.25717
1516.78	6.76021
1517.04	-3.27139
1517.3	-1.26907
1517.57	5.74853
1517.83	4.7479
1518.09	-7.27905
1518.36	-2.25385
1518.62	-3.25295
1518.88	1.76698
1519.15	-1.23801
1519.41	3.78368
1519.67	-0.223763
1519.94	-2.227
1520.2	4.79485
1520.47	-0.227047
1520.73	-3.24069
1520.99	-3.23721
1521.26	-5.23794
1521.52	-2.22274
1521.78	2.7963
1522.05	-0.216667
1522.31	1.78408
1522.57	-2.2361
1522.84	2.77159
1523.1	2.76437
1523.36	3.75588
1523.62	-0.274483
1523.89	9.7213
1524.15	3.69042
1524.41	0.670879
1524.68	-1.34389
1524.94	-2.3557
1525.2	3.65877
1525.47	-4.35088
1525.73	-2.34676
1525.99	1.66753
1526.26	2.68018
1526.52	-1.31219
1526.78	-2.30322
1527.05	4.71704
1527.31	5.71645
1527.57	-0.30806
1527.84	-1.31575
1528.1	-4.32873
1528.36	1.67693
1528.63	1.66761
1528.89	1.65904
1529.15	2.65315
1529.41	6.65467
1529.68	-0.359909
1529.94	3.64035
1530.2	2.62635
1530.47	-2.38543
1530.73	2.62533
1530.99	-6.37858
1531.25	2.64749
1531.52	5.6613
1531.78	2.65437
1532.04	1.64574
1532.31	-4.36701
1532.57	-3.37532
1532.83	1.63917
1533.09	0.651417
1533.36	1.67404
1533.62	0.688446
1533.88	2.70082
1534.15	2.70335
1534.41	1.6968
1534.67	-0.315815
1534.94	6.6976
1535.2	-0.333065
1535.46	-0.341625
1535.72	1.64885
1535.99	0.611668
1536.25	-1.41429
1536.51	4.57856
1536.77	0.547119
1537.04	4.52407
1537.3	0.496407
1537.56	0.484272
1537.82	-1.53414
1538.09	2.46404
1538.35	-1.55288
1538.61	-1.57552
1538.87	1.41367
1539.14	0.404297
1539.4	-8.58051
1539.66	1.45044
1539.92	1.4934
1540.19	0.52029
1540.45	-3.46502
1540.71	-0.435692
1540.97	3.58834
1541.24	-1.42244
1541.5	-4.45909
1541.76	-1.45876
1542.02	-1.47951
1542.29	-0.496899
1542.55	-4.52314
1542.81	-4.54185
1543.07	-0.554928
1543.34	4.43151
1543.6	3.41007
1543.86	-2.61797
1544.12	5.35764
1544.39	-1.64431
1544.65	7.3562
1544.91	-0.636463
1545.17	2.37971
1545.43	-1.61405
1545.7	1.40946
1545.96	-3.5887
1546.22	-3.58567
1546.48	-0.578651
1546.74	-3.59203
1547.01	6.42321
1547.27	-0.58654
1547.53	5.4278
1547.79	-0.582153
1548.06	7.41416
1548.32	1.36488
1548.58	-2.64551
1548.84	-5.65145
1549.1	-3.6363
1549.37	2.30876
1549.63	0.237095
1549.89	3.21666
1550.15	0.248112
1550.42	6.31521
1550.68	-3.61183
1550.94	-1.54472
1551.2	5.54234
1551.46	-0.532875
1551.73	5.49256
1551.99	3.46572
1552.25	2.43607
1552.51	-1.5564
1552.77	1.47663
1553.03	0.458565
1553.3	2.44299
1553.56	1.38671
1553.82	4.38042
1554.08	3.3662
1554.34	7.35876
1554.61	6.33052
1554.87	0.2882
1555.13	-0.74168
1555.39	2.25008
1555.65	4.24352
1555.91	2.23397
1556.18	8.24302
1556.44	7.23623
1556.7	-0.793339
1556.96	1.20488
1557.22	-2.80363
1557.48	1.20113
1557.75	1.19637
1558.01	-0.816547
1558.27	0.167725
1558.53	-0.859341
1558.79	-4.88485
1559.06	-1.90849
1559.32	0.0675735
1559.58	-1.95547
1559.84	-1.9748
1560.1	1.00755
1560.36	1.99191
1560.63	-2.01884
1560.89	-3.02922
1561.15	3.95635
1561.41	3.94954
1561.67	-2.04829
1561.93	1.95501
1562.19	3.96628
1562.46	-4.02111
1562.72	-0.026165
1562.98	-0.0354576
1563.24	2.95323
1563.5	-0.0500679
1563.76	3.93743
1564.02	-9.07183
1564.29	-3.05755
1564.55	4.96463
1564.81	1.96441
1565.07	4.95572
1565.33	-3.09016
1565.59	4.78553
1565.85	-2.35713
1566.11	1.53883
1566.38	1.79855
1566.64	-0.129856
1566.9	-3.16709
1567.16	-2.21424
1567.42	-0.171707
1567.68	-1.12288
1567.94	-1.1437
1568.2	-0.193954
1568.47	2.80642
1568.73	-2.19033
1568.99	-0.192608
1569.25	-2.20486
1569.51	-0.234829
1569.77	-0.254951
1570.03	-1.2603
1570.29	-1.26191
1570.55	-4.26526
1570.82	0.726097
1571.08	-0.281178
1571.34	6.70491
1571.6	0.696415
1571.86	-0.319324
1572.12	0.661835
1572.38	-1.34462
1572.64	-2.35786
1572.9	-0.379162
1573.17	0.603451
1573.43	2.5844
1573.69	0.570625
1573.95	-1.44105
1574.21	1.54772
1574.47	-4.43641
1574.73	-1.43422
1574.99	-2.42472
1575.25	-0.418106
1575.51	0.589504
1575.78	4.59187
1576.04	6.58722
1576.3	5.57623
1576.56	5.56831
1576.82	-1.44044
1577.08	2.52893
1577.34	1.49841
1577.6	-1.52605
1577.86	2.43699
1578.12	4.40442
1578.38	4.37759
1578.64	0.370384
1578.9	1.35685
1579.17	-0.644337
1579.43	2.33926
1579.69	-4.64529
1579.95	-1.6576
1580.21	4.3275
1580.47	-6.64343
1580.73	-0.665665
1580.99	1.31948
1581.25	2.30246
1581.51	-2.69917
1581.77	0.276535
1582.03	5.23997
1582.29	0.236832
1582.55	-2.76338
1582.81	-2.77424
1583.07	6.17974
1583.33	-0.803528
1583.59	5.16435
1583.85	2.16789
1584.11	-3.82089
1584.38	1.15206
1584.64	2.14714
1584.9	2.14495
1585.16	-0.847301
1585.42	3.13
1585.68	2.12371
1585.94	-2.86467
1586.2	2.10268
1586.46	6.06371
1586.72	-3.91461
1586.98	-0.94593
1587.24	3.01986
1587.5	9.97162
1587.76	4.98401
1588.02	1.98941
1588.28	-4.98102
1588.54	0.987316
1588.8	2.9785
1589.06	-0.00392532
1589.32	-0.997879
1589.58	5.97228
1589.84	0.994396
1590.1	-3.98786
1590.36	5.96192
1590.62	-0.0130844
1590.88	2.97552
1591.14	0.983582
1591.4	3.96307
1591.66	4.95219
1591.92	-1.03358
1592.18	1.94081
1592.44	6.89736
1592.7	0.897724
1592.96	-1.1135
1593.22	5.83422
1593.48	3.81376
1593.74	-0.195404
1594	-5.19605
1594.26	2.72975
1594.52	1.72139
1594.78	4.69503
1595.04	-4.24318
1595.3	3.71122
1595.56	2.72053
1595.82	-5.235
1596.08	0.691803
1596.34	-2.29525
1596.6	0.678307
1596.86	0.672897
1597.12	2.65589
1597.38	7.62125
1597.64	-3.30598
1597.9	4.64135
1598.16	6.62072
1598.42	0.647854
1598.68	1.62369
1598.94	2.5931
1599.2	1.57839
1599.46	3.5454
1599.72	-0.441193
1599.98	3.51104
1600.24	5.47785
1600.5	-3.46586
1600.76	1.47503
1601.02	4.42754
1601.28	10.3474
1601.54	-1.57226
1601.8	-0.607613
1602.06	2.34031
1602.32	3.31089
1602.58	3.29235
1602.84	8.22029
1603.1	-2.68556
1603.36	1.25191
1603.62	1.23436
1603.88	6.16478
1604.14	5.16479
1604.4	3.18034
1604.66	3.17611
1604.92	9.10532
1605.17	3.16819
1605.43	-2.76837
1605.69	-0.793686
1605.95	2.173
1606.21	6.13158
1606.47	2.17898
1606.73	1.19316
1606.99	4.16302
1607.25	2.17208
1607.51	3.1686
1607.77	4.14243
1608.03	11.6895
1608.29	1.22346
1608.55	1.30098
1608.81	0.289658
1609.07	-2.31903
1609.32	4.8345
1609.58	2.70016
1609.84	8.08164
1610.1	7.6031
1610.36	7.96246
1610.62	2.65283
1610.88	4.0376
1611.14	3.54833
1611.4	6.39285
1611.66	3.60857
1611.92	2.44871
1612.18	5.55534
1612.44	5.05883
1612.69	8.38426
1612.95	0.460884
1613.21	-3.18978
1613.47	6.75121
1613.73	2.06625
1613.99	4.4018
1614.25	0.279629
1614.51	2.92329
1614.77	6.30378
1615.03	-0.49707
1615.29	2.93927
1615.54	6.45589
1615.8	6.17453
1616.06	0.27861
1616.32	1.07646
1616.58	5.25821
1616.84	4.18144
1617.1	4.98895
1617.36	4.48518
1617.62	2.37792
1617.88	5.3623
1618.13	3.06699
1618.39	6.57524
1618.65	1.7625
1618.91	5.48079
1619.17	5.94066
1619.43	3.75502
1619.69	5.40416
1619.95	6.92339
1620.2	9.28371
1620.46	5.82561
1620.72	4.30137
1620.98	5.20476
1621.24	1.98981
1621.5	-0.0272636
1621.76	6.11071
1622.02	7.18324
1622.27	3.81371
1622.53	4.55675
1622.79	2.61645
1623.05	6.61598
1623.31	5.30344
1623.57	4.03744
1623.83	6.89584
1624.09	5.1513
1624.34	1.17989
1624.6	0.835651
1624.86	1.99868
1625.12	6.34218
1625.38	6.34146
1625.64	5.6955
1625.9	5.17169
1626.15	5.30895
1626.41	2.97253
1626.67	7.39233
1626.93	8.2546
1627.19	1.54117
1627.45	2.0575
1627.7	4.20423
1627.96	9.23145
1628.22	7.02404
1628.48	4.09475
1628.74	2.9278
1629	3.34106
1629.26	6.48495
1629.51	2.63763
1629.77	1.20306
1630.03	2.26331
1630.29	5.28756
1630.55	6.96915
1630.81	8.67914
1631.06	9.87919
1631.32	4.19228
1631.53	2.66909
1631.79	4.64716
1632.05	6.62833
1632.31	0.725067
1632.57	2.69048
1632.84	4.67831
1633.1	4.71091
1633.36	5.67001
1633.62	8.58831
1633.88	11.534
1634.14	15.4844
1634.4	7.61034
1634.66	12.5405
1634.93	8.59787
1635.19	8.59497
1635.45	-2.2518
1635.71	9.56979
1635.97	4.63444
1636.23	13.4945
1636.49	13.4833
1636.75	5.59064
1637.02	7.54971
1637.28	6.55179
1637.54	5.55273
1637.8	5.54482
1638.06	3.57182
1638.32	-1.35823
1638.58	10.4468
1638.84	6.50254
1639.1	7.48643
1639.37	6.50111
1639.63	8.46791
1639.89	5.51328
1640.15	4.52671
1640.41	10.429
1640.67	5.50862
1640.93	13.3971
1641.19	-0.378643
1641.46	5.53124
1641.72	11.4334
1641.98	8.47082
1642.24	2.55809
1642.5	2.55384
1642.76	9.44096
1643.02	8.45275
1643.28	6.48102
1643.54	9.43171
1643.8	4.50792
1644.06	5.48601
1644.33	8.43021
1644.59	2.51484
1644.85	7.42472
1645.11	5.45454
1645.37	0.540356
1645.63	5.46871
1645.89	3.50568
1646.15	9.41103
1646.41	3.49962
1646.67	8.41089
1646.93	5.45187
1647.19	2.49619
1647.46	7.40752
1647.72	9.36681
1647.98	10.3437
1648.24	8.37553
1648.5	6.41168
1648.76	2.48977
1649.02	8.40597
1649.28	7.4584
1649.54	8.45749
1649.8	8.45002
1650.06	7.45808
1650.32	10.4111
1650.58	-2.3662
1650.85	7.49791
1651.11	7.51189
1651.37	4.57064
1651.63	9.50722
1651.89	4.58496
1652.15	6.55707
1652.41	5.57268
1652.67	12.475
1652.93	6.55589
1653.19	0.636608
1653.45	6.54557
1653.71	15.4141
1653.97	10.4925
1654.23	3.60346
1654.49	7.55096
1654.75	2.62762
1655.01	5.59029
1655.27	0.671944
1655.53	4.63
1655.8	1.69278
1656.06	3.69099
1656.32	-2.21215
1656.57	7.66896
1656.84	1.75454
1657.1	4.72066
1657.36	4.72046
1657.62	5.70325
1657.88	7.67123
1658.14	10.6289
1658.4	4.70454
1658.66	7.65908
1658.92	4.69132
1659.18	0.737679
1659.44	2.70258
1659.7	6.6393
1659.96	0.715122
1660.22	4.64627
1660.48	11.555
1660.74	8.6091
1661	11.5811
1661.26	11.597
1661.52	8.65411
1661.78	5.71143
1662.04	2.75941
1662.3	3.75395
1662.56	2.70888
1662.82	6.78885
1663.08	2.90949
1663.34	3.86377
1663.6	7.81184
1663.86	0.880325
1664.12	6.66568
1664.38	4.76908
1664.64	7.75066
1664.9	4.79791
1665.16	1.87165
1665.42	-2.0643
1665.68	6.75505
1665.94	-4.1543
1666.2	2.92252
1666.46	7.88438
1666.72	6.89135
1666.98	3.8337
1667.24	1.65857
1667.5	6.79085
1667.76	15.6617
1668.02	6.77066
1668.28	3.80671
1668.54	11.6914
1668.8	3.80412
1669.06	5.81233
1669.32	3.88027
1669.58	-0.0595207
1669.84	5.87211
1670.1	-3.0116
1670.36	3.89975
1670.62	7.8544
1670.88	3.94263
1671.14	5.94633
1671.4	1.00096
1671.66	2.97666
1671.92	8.90784
1672.18	1.99646
1672.44	6.94873
1672.69	3.00124
1672.95	-2.92591
1673.21	9.92872
1673.47	6.96953
1673.73	1.0454
1673.99	6.98622
1674.25	4.03181
1674.51	1.07879
1674.77	2.08035
1675.03	1.10427
1675.29	4.08927
1675.55	5.09387
1675.81	4.11502
1676.07	8.07925
1676.33	4.12441
1676.59	0.172947
1676.85	4.13998
1677.11	6.12627
1677.37	5.14042
1677.63	3.16214
1677.89	3.16108
1678.14	1.17775
1678.4	4.13808
1678.66	5.11754
1678.92	6.09912
1679.18	8.07212
1679.44	2.13692
1679.7	2.13667
1679.96	2.13524
1680.22	5.09887
1680.48	4.11081
1680.74	0.156612
1681	2.13174
1681.26	-1.8205
1681.52	5.09756
1681.78	0.1623
1682.03	10.0464
1682.29	5.11245
1682.55	2.15498
1682.81	8.08979
1683.07	-1.7865
1683.33	7.10847
1683.59	-1.77742
1683.85	-0.783772
1684.11	-1.76744
1684.37	2.1857
1684.63	1.194
1684.89	4.15724
1685.14	-0.777714
1685.4	5.15113
1685.66	2.19358
1685.92	4.17434
1686.18	2.20614
1686.44	6.16384
1686.7	-0.737179
1686.96	7.18416
1687.22	-0.705296
1687.48	3.25413
1687.73	-3.65935
1687.99	-0.696667
1688.25	3.25312
1688.51	-3.65924
1688.77	2.2653
1689.03	8.18594
1689.29	-0.706142
1689.55	1.26374
1689.81	4.21925
1690.06	0.266712
1690.32	2.23186
1690.58	-1.71046
1690.84	4.22944
1691.1	-3.64774
1691.36	5.24477
1691.62	9.20234
1691.88	-0.651508
1692.13	-0.638916
1692.39	-0.631706
1692.65	0.358822
1692.91	2.33019
1693.17	4.29799
1693.43	-2.61446
1693.69	1.32078
1693.95	3.28035
1694.2	0.317566
1694.46	9.18098
1694.72	0.306656
1694.98	1.28983
1695.24	0.31131
1695.5	-1.64764
1695.76	-4.59213
1696.01	-2.61077
1696.27	-0.62846
1696.53	2.34402
1696.79	6.29987
1697.05	2.36501
1697.31	2.36661
1697.57	-0.593464
1697.82	-5.52652
1698.08	6.28271
1698.34	3.32244
1698.6	0.36586
1698.86	2.33172
1699.12	4.29887
1699.38	2.33405
1699.63	3.32435
1699.89	-3.55193
1700.15	0.392677
1700.41	-1.56621
1700.67	4.33378
1700.92	-4.51527
1701.18	-4.50967
1701.44	0.413788
1701.7	3.36731
1701.96	-1.55245
1702.22	2.37674
1702.47	0.407272
1702.73	0.403145
1702.99	-4.51356
1703.25	-4.50848
1703.51	7.28997
1703.77	0.415962
1704.02	-2.52901
1704.28	7.30014
1704.54	-0.54493
1704.8	2.41994
1705.06	-3.46539
1705.32	2.43624
1705.57	-1.48943
1705.83	-1.48068
1706.09	-2.45445
1706.35	1.47465
1706.61	3.43425
1706.86	-1.48227
1707.12	1.45648
1707.38	-3.45786
1707.64	-1.49908
1707.9	-2.48745
1708.16	-0.536041
1708.41	-2.5074
1708.67	-2.51736
1708.93	5.30755
1709.19	0.397739
1709.44	-9.39911
1709.7	2.35042
1709.96	-0.581829
1710.22	4.32109
1710.48	-5.4579
1710.73	-1.53089
1710.99	-2.49558
1711.25	6.33566
1711.51	1.45496
1711.77	1.47004
1712.02	-1.45417
1712.28	-0.464333
1712.54	4.43529
1712.8	2.46786
1713.06	4.4082
1713.31	1.4542
1713.57	4.372
1713.83	5.33504
1714.09	3.36486
1714.34	-1.52249
1714.6	0.433208
1714.86	5.32093
1715.12	-3.46365
1715.38	-2.47822
1715.63	5.3567
1715.89	-1.4582
1716.15	-0.471714
1716.41	0.510025
1716.66	3.44142
1716.92	3.43735
1717.18	0.499622
1717.44	-2.44052
1717.69	-6.3582
1717.95	-0.525085
1718.21	-4.44074
1718.47	-0.555489
1718.72	1.38228
1718.98	4.29969
1719.24	5.27519
1719.5	4.3103
1719.75	-3.46931
1720.01	-6.3832
1720.27	0.446537
1720.53	6.30154
1720.78	0.463497
1721.04	1.43589
1721.3	1.42892
1721.56	2.39875
1721.81	4.34165
1722.07	4.33688
1722.33	-0.530624
1722.59	4.32409
1722.84	-2.4848
1723.1	-2.48847
1723.36	5.28003
1723.62	-2.49043
1723.87	-0.544746
1724.13	7.23354
1724.39	5.2963
1724.64	4.33244
1724.9	-0.521511
1725.16	-2.46805
1725.42	5.28024
1725.67	7.20656
1725.93	-3.47236
1726.19	0.400646
1726.45	-3.47233
1726.7	1.38831
1726.96	0.425171
1727.22	0.426693
1727.47	8.16382
1727.73	2.36165
1727.99	6.26291
1728.24	-1.48031
1728.5	6.26882
1728.76	4.31763
1729.02	3.2705
1729.27	8.97337
1729.53	-2.63297
1729.79	0.307693
1730.05	5.18019
1730.3	4.25101
1730.56	4.22182
1730.82	-0.611973
1731.07	-1.57212
1731.33	2.37218
1731.59	3.35406
1731.84	7.23219
1732.1	1.44306
1732.36	2.41682
1732.61	-0.477184
1732.87	5.3245
1733.13	2.42735
1733.39	7.25414
1733.64	-0.479992
1733.9	1.43738
1734.16	1.42232
1734.41	8.16561
1734.67	-2.45063
1734.93	2.36079
1735.18	6.20542
1735.44	4.26877
1735.7	0.409737
1735.95	2.33366
1736.21	4.26036
1736.47	3.30313
1736.72	3.30779
1736.98	2.34831
1737.24	3.31321
1737.49	7.16318
1737.75	2.35593
1738.01	3.32101
1738.26	6.20592
1738.52	3.31886
1738.78	2.35552
1739.03	1.39262
1739.29	7.15364
1739.55	2.34298
1739.8	1.37048
1740.06	4.23286
1740.32	5.17573
1740.57	8.03884
1740.83	4.19422
1741.09	-0.602051
1741.34	6.10292
1741.6	7.05751
1741.86	3.22421
1742.11	3.22517
1742.37	7.05986
1742.63	8.02493
1742.88	7.07364
1743.14	-3.45153
1743.4	8.04274
1743.65	2.30951
1743.91	4.22902
1744.16	1.35666
1744.42	-2.46929
1744.68	1.35989
1744.93	2.32364
1745.19	-3.40384
1745.45	6.174
1745.7	3.31614
1745.96	4.28101
1746.22	2.3718
1746.47	1.41468
1746.73	5.23386
1746.98	1.40324
1747.24	4.26674
1747.5	0.439373
1747.75	2.34688
1748.01	2.34382
1748.27	4.2575
1748.52	0.449532
1748.78	5.23497
1749.03	8.11324
1749.29	2.40174
1749.55	0.511227
1749.8	6.26273
1750.06	-0.398239
1750.32	-1.32799
1750.57	0.608871
1750.83	-1.27782
1751.08	7.34181
1751.34	6.40548
1751.6	0.683155
1751.85	5.4666
1752.11	2.59269
1752.36	3.54059
1752.62	2.58257
1752.88	1.62598
1753.13	12.1254
1753.39	5.43962
1753.64	2.57603
1753.9	3.53129
1754.15	2.5788
1754.41	10.2069
1754.67	2.57458
1754.92	3.53012
1755.18	1.62648
1755.43	-2.1815
1755.69	5.44746
1755.95	5.44823
1756.2	2.58796
1756.46	9.25158
1756.71	8.29255
1756.97	6.37842
1757.23	6.36888
1757.48	4.45875
1757.74	3.51157
1757.99	6.3688
1758.25	7.33608
1758.5	6.41667
1758.76	4.53176
1759.02	6.44835
1759.27	2.6548
1759.53	1.71597
1759.78	2.68274
1760.04	3.6452
1760.3	4.60388
1760.55	11.2705
1760.81	6.51862
1761.06	11.2792
1761.32	8.42617
1761.57	0.816795
1761.83	9.37467
1762.08	7.47664
1762.34	1.77993
1762.6	10.3442
1762.85	3.71317
1763.11	12.2895
1763.36	3.74546
1763.62	6.60694
1763.87	7.57185
1764.13	9.49044
1764.38	11.4117
1764.64	11.4384
1764.89	4.81607
1765.15	6.74163
1765.4	10.5698
1765.66	10.5884
1765.92	12.5091
1766.17	5.85919
1766.43	4.9192
1766.68	11.5932
1766.94	6.83948
1767.19	5.89475
1767.45	10.665
1767.7	11.6228
1767.96	13.5281
1768.21	13.5287
1768.47	10.6777
1768.73	10.6834
1768.98	6.88488
1769.24	10.6727
1769.49	9.69492
1769.75	9.67075
1770	12.5072
1770.26	12.521
1770.51	6.85111
1770.77	10.6798
1771.02	9.74271
1771.28	11.6598
1771.53	6.93877
1771.79	9.82682
1772.04	11.7492
1772.3	1.30455
1772.55	9.88631
1772.81	11.8148
1773.06	13.7405
1773.32	12.8097
1773.57	9.02312
1773.83	6.1866
1774.08	10.0121
1774.34	6.22135
1774.59	10.997
1774.85	7.20367
1775.1	10.0813
1775.36	1.52777
1775.61	9.17012
1775.87	11.1189
1776.12	7.33619
1776.38	12.1229
1776.63	8.32387
1776.89	11.1921
1777.14	7.38192
1777.4	13.0999
1777.65	9.29187
1777.91	14.0548
1778.16	10.2428
1778.42	15.9557
1778.67	7.38341
1778.93	13.0928
1779.18	7.37428
1779.44	10.2215
1779.69	14.9783
1779.95	8.32895
1780.2	3.6017
1780.46	16.9414
1780.71	14.103
1780.97	3.65032
1781.22	10.3318
1781.47	7.48857
1781.73	11.311
1781.98	7.5201
1782.24	3.73154
1782.49	7.56267
1782.75	8.54237
1783	4.75281
1783.26	8.58329
1783.51	9.55504
1783.77	1.94982
1784.02	8.64209
1784.28	8.66316
1784.53	2.01129
1784.79	8.71519
1785.04	7.7829
1785.29	-0.787472
1785.55	4.94826
1785.8	14.4966
1786.06	4.96023
1786.31	6.8722
1786.57	4.97647
1786.82	4.99294
1787.08	4.06012
1787.33	7.90204
1787.58	5.06763
1787.84	10.8328
1788.09	8.97481
1788.35	6.16095
1788.6	8.12707
1788.86	2.42308
1789.11	4.35936
1789.37	3.42748
1789.62	1.54576
1789.87	1.57189
1790.13	2.54889
1790.38	9.27743
1790.64	10.2559
1790.89	8.34995
1791.15	4.52293
1791.4	5.47766
1791.65	4.49097
1791.91	7.36935
1792.16	3.54274
1792.42	9.30017
1792.67	7.39818
1792.93	7.41239
1793.18	3.59985
1793.43	8.40565
1793.69	-1.16242
1793.94	8.42906
1794.2	3.65754
1794.45	5.58686
1794.7	6.55428
1794.96	8.47076
1795.21	7.5419
1795.47	1.84932
1795.72	2.85058
1795.97	-0.962437
1796.23	-1.90296
1796.48	6.75956
1796.74	0.0595589
1796.99	1.04201
1797.25	2.02514
1797.5	-0.836231
1797.75	2.0667
1798.01	3.04618
1798.26	3.06324
1798.51	4.04057
1798.77	-0.753376
1799.02	-2.66605
1799.28	-6.50529
1799.53	2.15172
1799.78	1.19086
1800.04	7.91658
1800.29	1.188
1800.55	3.11078
1800.8	-1.69003
1801.05	0.235817
1801.31	0.24202
1801.56	0.249866
1801.81	0.259575
1802.07	6.03463
1802.32	8.93056
1802.58	-2.58172
1802.83	2.23949
1803.08	-0.623722
1803.34	3.24221
1803.59	5.18798
1803.84	3.28555
1804.1	10.9943
1804.35	3.31364
1804.61	6.21671
1804.86	-6.26852
1805.11	2.41083
1805.37	5.32125
1805.62	1.49572
1805.87	-5.22101
1806.13	1.542
1806.38	2.52534
1806.64	0.617252
1806.89	8.34376
1807.14	-1.27857
1807.4	7.40662
1807.65	4.52507
1807.9	4.53442
1808.16	1.65283
1808.41	2.62676
1808.66	6.49278
1808.92	1.68431
1809.17	0.731567
1809.42	4.5988
1809.68	-0.210197
1809.93	8.47787
1810.18	1.74076
1810.44	1.75167
1810.69	-1.13138
1810.94	-0.161289
1811.2	1.77272
1811.45	7.56499
1811.7	3.71607
1811.96	-1.09631
1812.21	-2.05115
1812.46	5.67308
1812.72	7.6171
1812.97	-4.90173
1813.22	0.903496
1813.48	-2.93817
1813.73	-3.89113
1813.98	5.7739
1814.24	5.7966
1814.49	-2.86623
1814.74	3.91714
1815	-2.8159
1815.25	3.96635
1815.5	2.05174
1815.76	2.06508
1816.01	1.11002
1816.26	4.98709
1816.52	2.09885
1816.77	-0.788891
1817.02	5.99038
1817.27	1.16134
1817.53	5.99352
1817.78	-2.72312
1818.03	2.09512
1818.29	1.14018
1818.54	-1.73929
1818.79	4.08133
1819.05	4.099
1819.3	2.17092
1819.55	0.250225
1819.8	7.03094
1820.06	8.97982
1820.31	5.12653
1820.56	8.04228
1820.82	1.28965
1821.07	7.10667
1821.32	3.25143
1821.58	-0.602184
1821.83	6.18728
1822.08	1.36555
1822.33	-1.52349
1822.59	10.1039
1822.84	-1.49964
1823.09	-2.45714
1823.34	1.4252
1823.6	6.27171
1823.85	-1.47039
1824.1	3.37061
1824.36	5.31195
1824.61	3.38826
1824.86	-3.37549
1825.11	-0.459286
1825.37	3.42642
1825.62	2.47173
1825.87	5.38844
1826.12	2.49131
1826.38	5.40329
1826.63	1.53758
1826.88	-2.32787
1827.14	3.49139
1827.39	3.50209
1827.64	7.38946
1827.89	-4.22211
1828.15	-0.334511
1828.4	3.54811
1828.65	6.4589
1828.9	-6.1349
1829.16	5.48809
1829.41	3.55158
1829.66	-1.28686
1829.91	0.6544
1830.17	0.657471
1830.42	3.56199
1830.67	6.46609
1830.92	-1.27926
1831.18	2.59973
1831.43	4.54916
1831.68	-1.24642
1831.93	0.704582
1832.19	1.68678
1832.44	6.54428
1832.69	1.71491
1832.94	5.60938
1833.2	3.68596
1833.45	9.50883
1833.7	2.73126
1833.95	6.62039
1834.2	3.72098
1834.46	0.82246
1834.71	-1.12523
1834.96	1.75724
1835.21	4.63863
1835.47	-0.223385
1835.72	0.732944
1835.97	3.62456
1836.22	-2.17427
1836.48	-2.18141
1836.73	1.93148
1836.98	3.87127
1837.23	1.85538
1837.48	5.70919
1837.74	3.73304
1837.99	3.70042
1838.24	1.71025
1838.49	-1.21928
1838.74	2.64344
1839	4.68466
1839.25	-2.04441
1839.5	3.79428
1839.75	-1.03672
1840	-3.93134
1840.26	-1.9743
1840.51	-1.05148
1840.76	2.78549
1841.01	2.7548
1841.27	2.72946
1841.52	0.773548
1841.77	-0.213276
1842.02	-4.09319
1842.27	1.68272
1842.53	-1.22678
1842.78	5.51052
1843.03	3.59694
1843.28	6.48913
1843.53	1.67778
1843.78	-0.247795
1844.04	5.54454
1844.29	0.719734
1844.54	-3.13426
1844.79	-1.19382
1845.04	0.741032
1845.3	-3.12224
1845.55	1.70695
1845.8	4.60542
1846.05	2.70528
1846.3	2.73571
1846.55	0.831902
1846.81	1.84333
1847.06	0.848713
1847.31	-5.01748
1847.56	3.56512
1847.81	-1.26382
1848.07	3.55435
1848.32	0.699574
1848.57	-0.233215
1848.82	2.63071
1849.07	-1.23261
1849.32	-0.264259
1849.57	1.65366
1849.83	6.45245
1850.08	4.51208
1850.33	2.57402
1850.58	-1.29045
1850.83	2.54132
1851.09	0.607529
1851.34	-0.362087
1851.59	-4.21138
1851.84	3.46731
1852.09	1.54399
1852.34	5.38551
1852.59	4.42804
1852.84	4.43148
1853.1	4.43457
1853.35	1.55541
1853.6	6.35561
1853.85	1.55158
1854.1	2.50311
1854.35	-0.389133
1854.6	3.43265
1854.86	2.45948
1855.11	-3.29998
1855.36	3.40581
1855.61	2.43271
1855.86	4.33235
1856.11	-0.466015
1856.36	-4.29974
1856.61	3.36274
1856.87	2.40769
1857.12	1.45219
1857.37	-5.25213
1857.62	-0.465649
1857.87	2.403
1858.12	7.1856
1858.37	0.476921
1858.63	-0.489281
1858.88	5.24174
1859.13	5.22971
1859.38	1.39116
1859.63	3.29099
1859.88	0.414612
1860.13	5.19558
1860.38	7.1102
1860.63	-1.4884
1860.89	-1.47577
1861.14	3.31824
1861.39	-0.497086
1861.64	-3.35472
1861.89	4.31128
1862.14	-8.12419
1862.39	-1.4262
1862.64	4.30816
1862.9	1.42719
1863.15	1.41523
1863.4	-1.46521
1863.65	-0.520248
1863.9	-2.44206
1864.15	0.415665
1864.4	0.406857
1864.65	-4.37748
1864.9	2.29987
1865.15	0.379547
1865.4	4.18479
1865.66	-0.603416
1865.91	3.1952
1866.16	-6.3624
1866.41	-3.52245
1866.66	-4.49673
1866.91	-3.56487
1867.16	2.12617
1867.41	-1.70315
1867.66	-3.62524
1867.91	5.87003
1868.16	-4.5986
1868.41	0.150146
1868.67	-1.75396
1868.92	-1.75198
1869.17	1.10411
1869.42	-0.796787
1869.67	0.151901
1869.92	3.95166
1870.17	4.8996
1870.42	-4.6077
1870.67	2.0437
1870.92	-0.809124
1871.17	-0.809731
1871.42	4.89245
1871.67	-8.41576
1871.92	2.03175
1872.17	-1.77789
1872.42	1.0659
1872.68	1.06069
1872.93	1.05059
1873.18	4.83719
1873.43	2.93055
1873.68	0.0803604
1873.93	0.0762177
1874.18	0.0685806
1874.43	1.95603
1874.68	-2.80031
1874.93	0.0319443
1875.18	-2.8271
1875.43	1.8982
1875.68	7.56816
1875.93	6.59794
1876.18	-3.85236
1876.43	0.860691
1876.68	-1.0493
1876.93	-5.79269
1877.18	1.7668
1877.43	4.57362
1877.68	0.757195
1877.93	-4.97087
1878.18	-0.206429
1878.44	2.84277
1878.69	-1.02704
1878.93	8.40971
1879.19	0.832466
1879.44	3.72777
1879.69	2.80794
1879.94	3.7366
1880.19	6.55831
1880.44	2.7675
1880.69	5.60328
1880.94	0.882038
1881.19	1.81532
1881.44	2.75854
1881.69	1.78692
1881.94	-0.134384
1882.19	-2.99955
1882.44	1.69526
1882.69	-2.11654
1882.94	0.675564
1883.19	2.5452
1883.44	4.38655
1883.69	1.94435
1883.94	-2.09001
1884.19	10.9597
1884.44	-1.28779
1884.69	0.63026
1884.94	2.48372
1885.19	7.21938
1885.44	2.5346
1885.69	0.654976
1885.94	-0.282379
1886.19	0.688335
1886.44	0.70071
1886.69	-4.01388
1886.94	-1.18727
1887.19	5.39605
1887.44	-0.281834
1887.69	-2.18344
1887.94	6.29176
1888.19	4.38803
1888.44	0.597992
1888.69	-1.3109
1888.94	7.14739
1889.19	-1.35085
1889.44	-4.19416
1889.69	0.5023
1889.94	8.02944
1890.19	3.31824
1890.44	4.26363
1890.69	3.33431
1890.94	0.521076
1891.19	2.40715
1891.43	2.4032
1891.68	3.3378
1891.94	4.27665
1892.18	-5.14631
1892.43	-3.26761
1892.68	7.08647
1892.93	0.484871
1893.18	-4.23546
1893.43	5.15338
1893.68	-1.46626
1893.93	3.20457
1894.18	7.89453
1894.43	4.14291
1894.68	4.11858
1894.93	0.347466
1895.18	3.15921
1895.43	4.09823
1895.68	3.16104
1895.93	3.16502
1896.18	-0.589169
1896.43	3.17544
1896.68	-0.577229
1896.93	3.19234
1897.18	-1.50169
1897.42	3.2058
1897.68	-6.1971
1897.92	5.09079
1898.17	2.26607
1898.42	-0.561867
1898.67	-3.39248
1898.92	4.11836
1899.17	3.16177
1899.42	-0.615746
1899.67	2.19001
1899.92	-3.45656
1900.17	4.04984
1900.42	4.0394
1900.67	4.03459
1900.92	-3.48123
1901.16	5.91623
1901.41	6.86358
1901.66	-0.644604
1901.91	5.00374
1902.16	0.312386
1902.41	-0.617393
1902.66	2.21383
1902.91	5.97433
1903.16	-1.55875
1903.41	-0.626972
1903.66	2.18444
1903.91	4.05683
1904.16	4.0498
1904.41	4.04385
1904.65	3.09869
1904.9	1.21314
1905.15	5.90737
1905.4	5.90168
1905.65	1.19728
1905.9	0.250748
1906.15	-3.52758
1906.4	0.208469
1906.65	5.83308
1906.9	-0.751995
1907.14	2.05624
1907.39	5.80475
1907.64	2.98493
1907.89	7.6806
1908.14	0.171825
1908.39	1.11859
1908.64	2.99897
1908.89	7.6967
1909.14	-1.69651
1909.39	10.5262
1909.63	5.83641
1909.88	6.78902
1910.13	5.86407
1910.38	5.88129
1910.63	2.13497
1910.88	4.0326
1911.13	2.15939
1911.38	-3.48606
1911.62	-0.658615
1911.87	4.04988
1912.12	3.10371
1912.37	-0.671871
1912.62	2.14604
1912.87	4.96647
1913.12	4.02067
1913.37	8.7263
1913.61	1.18971
1913.86	1.19471
1914.11	6.86145
1914.36	6.87778
1914.61	2.17458
1914.86	4.06902
1915.11	3.13513
1915.36	-1.5742
1915.6	7.86556
1915.85	11.64
1916.1	2.19813
1916.35	3.1327
1916.6	3.12538
1916.85	-3.49089
1917.1	-1.62006
1917.34	2.13805
1917.59	4.95386
1917.84	3.05772
1918.09	3.99257
1918.34	2.10447
1918.59	-2.6059
1918.83	4.00364
1919.08	4.95918
1919.33	3.08629
1919.58	6.87722
1919.83	2.17781
1920.08	4.08392
1920.33	3.14639
1920.57	5.03466
1920.82	2.18861
1921.07	6.91269
1921.32	-1.58152
1921.57	-1.57127
1921.81	4.10607
1922.06	1.27316
1922.31	1.27393
1922.56	2.21529
1922.81	-0.630989
1923.06	2.19248
1923.31	-0.656868
1923.55	5.00513
1923.8	4.99556
1924.05	2.14962
1924.3	1.19159
1924.55	4.95607
1924.79	-0.724785
1925.04	-0.731663
1925.29	3.04506
1925.54	-0.731358
1925.79	7.78187
1926.04	4.01548
1926.28	2.13646
1926.53	7.82261
1926.78	3.10491
1927.03	1.22621
1927.28	3.12699
1927.52	1.23775
1927.77	3.13514
1928.02	2.19089
1928.27	2.19296
1928.52	3.14194
1928.76	5.98357
1929.01	-0.645615
1929.26	6.93806
1929.51	0.308884
1929.76	4.1088
1930	2.22642
1930.25	-0.608967
1930.5	2.24996
1930.75	-0.587795
1931	-3.42559
1931.24	1.32072
1931.49	4.1658
1931.74	3.20674
1931.99	-2.50177
1932.24	1.28246
1932.48	0.320183
1932.73	3.15385
1932.98	0.293205
1933.23	5.0291
1933.47	-2.57298
1933.72	-0.677353
1933.97	7.87424
1934.22	-2.54234
1934.46	4.13848
1934.71	-1.51731
1934.96	0.42865
1935.21	1.41887
1935.46	-3.31516
1935.7	4.33398
1935.95	-0.419373
1936.2	-2.36855
1936.45	4.29223
1936.69	0.4711
1936.94	0.458572
1937.19	6.15765
1937.44	5.18445
1937.68	3.26176
1937.93	3.24381
1938.18	2.2756
1938.43	4.16157
1938.68	-0.602734
1938.92	2.2679
1939.17	1.31762
1939.42	6.08297
1939.67	2.27844
1939.91	2.28094
1940.16	5.14384
1940.41	-2.48131
1940.66	-3.4263
1940.9	-1.5118
1941.15	0.427696
1941.4	-0.509651
1941.64	4.25651
1941.89	-4.34438
1942.14	-0.553284
1942.39	5.12685
1942.63	4.19073
1942.88	4.24861
1943.13	-2.42602
1943.38	-3.38401
1943.62	-1.50227
1943.87	-0.578777
1944.12	4.16491
1944.37	1.33567
1944.61	-2.47521
1944.86	7.0786
1945.11	3.26818
1945.35	0.412167
1945.6	0.421116
1945.85	1.38568
1946.1	2.34928
1946.34	-2.42541
1946.59	0.446346
1946.84	-2.42168
1947.09	5.22775
1947.33	-2.43032
1947.58	3.29757
1947.83	3.28588
1948.07	-3.41457
1948.32	3.27311
1948.57	1.35474
1948.82	1.34458
1949.06	0.385853
1949.31	-1.52184
1949.56	5.18008
1949.8	5.18805
1950.05	4.24153
1950.3	4.25243
1950.54	-3.3884
1950.79	4.29615
1951.04	6.22974
1951.29	1.45498
1951.53	3.39246
1951.78	3.41039
1952.03	2.46365
1952.27	0.549934
1952.52	2.47392
1952.77	3.43867
1953.01	1.5101
1953.26	-0.405659
1953.51	5.36846
1953.76	5.34553
1954	3.39584
1954.25	4.31068
1954.49	2.35246
1954.74	0.398159
1954.99	0.36615
1955.24	0.352425
1955.48	4.17675
1955.73	-3.48579
1955.98	-0.601501
1956.22	3.25284
1956.47	2.33115
1956.72	1.38308
1956.96	-0.523159
1957.21	-5.31958
1957.46	4.29169
1957.7	4.29945
1957.95	3.34507
1958.2	6.23144
1958.44	2.38839
1958.69	5.27081
1958.94	-8.18804
1959.18	5.25828
1959.43	5.24073
1959.68	7.15079
1959.92	2.33892
1960.17	-2.47907
1960.42	0.388378
1960.66	4.21574
1960.91	5.16014
1961.16	0.342663
1961.4	4.16651
1961.65	-2.56647
1961.9	-1.6178
1962.14	3.17715
1962.39	2.21563
1962.63	1.25291
1962.88	2.21005
1963.13	2.20735
1963.37	3.16439
1963.62	4.12128
1963.87	0.278316
1964.11	5.07618
1964.36	4.11858
1964.61	3.1599
1964.85	8.91518
1965.1	3.1436
1965.35	5.06004
1965.59	5.0525
1965.84	4.08843
1966.08	1.20857
1966.33	6.0173
1966.58	6.98725
1966.82	3.15289
1967.07	1.23512
1967.32	9.88852
1967.56	9.88134
1967.81	3.14837
1968.05	3.14867
1968.3	2.18462
1968.55	5.06638
1968.79	-0.708187
1969.04	9.85553
1969.29	2.14956
1969.53	4.05139
1969.78	1.14489
1970.02	-1.75985
1970.27	2.06065
1970.52	0.123428
1970.76	0.110104
1971.01	5.85217
1971.25	11.5939
1971.5	4.86586
1971.75	6.77315
1971.99	1.00832
1972.24	4.84448
1972.48	10.6014
1972.73	9.64078
1972.98	1.96032
1973.22	10.5836
1973.47	-1.9012
1973.71	11.506
1973.96	8.61214
1974.21	3.80536
1974.45	5.71225
1974.7	7.62189
1974.94	9.53437
1975.19	2.82228
1975.44	4.73977
1975.68	7.61935
1975.93	11.4603
1976.17	12.4239
1976.42	6.67169
1976.66	10.508
1976.91	3.79115
1977.16	4.746
1977.4	15.2909
1977.65	9.52634
1977.89	9.514
1978.14	10.4577
1978.39	12.3594
1978.63	4.67609
1978.88	7.54021
1979.12	6.57298
1979.37	6.56827
1979.61	8.48276
1979.86	11.3541
1980.1	7.51821
1980.35	16.142
1980.6	7.50391
1980.84	8.44602
1981.09	13.2211
1981.33	3.62961
1981.58	9.36406
1981.82	13.1836
1982.07	9.34314
1982.31	12.2096
1982.56	8.37155
1982.81	16.9749
1983.05	8.34113
1983.3	2.57795
1983.54	19.7802
1983.79	12.1052
1984.03	7.3109
1984.28	15.9109
1984.52	12.0735
1984.77	15.8875
1985.02	15.8769
1985.26	10.1235
1985.51	12.0132
1985.75	14.8676
1986	14.8637
1986.24	15.82
1986.49	12.9582
1986.73	12.01
1986.98	17.7492
1987.22	12.9614
1987.47	13.9189
1987.71	26.3319
1987.96	19.6124
1988.21	18.6269
1988.45	19.5491
1988.7	14.7372
1988.94	18.4779
1989.19	21.2012
1989.43	13.6694
1989.68	21.8118
1989.92	19.7557
1990.17	15.5345
1990.41	18.1077
1990.66	24.2675
1990.9	17.1278
1991.15	18.0701
1991.39	15.6254
1991.64	16.6661
1991.88	20.3568
1992.13	16.5934
1992.37	17.0683
1992.62	18.3016
1992.86	19.3742
1993.11	22.2966
1993.35	21.2412
1993.6	17.991
1993.84	17.3733
1994.09	19.0671
1994.33	13.4206
1994.58	19.4024
1994.82	15.3262
1995.07	16.1962
1995.31	15.1182
1995.56	24.7465
1995.8	21.3006
1996.05	20.06
1996.29	17.592
1996.54	15.8685
1996.78	22.008
1997.03	18.3331
1997.27	19.2689
1997.52	21.7257
1997.76	23.5363
1998.01	16.3515
1998.25	20.3234
1998.5	17.297
1998.74	20.8022
1998.99	21.0728
1999.23	21.4822
1999.48	16.8277
1999.72	24.7903
1999.97	24.3857
2000.21	21.6913
2000.46	26.0488
2000.7	19.3358
2000.95	17.3096
2001.19	19.8427
2001.43	21.1366
2001.68	24.6185
2001.92	21.9177
2002.17	28.6659
2002.41	24.7663
2002.66	20.1446
2002.9	22.732
2003.15	25.779
2003.39	22.7619
2003.64	21.6747
2003.88	25.51
2004.13	21.6724
2004.37	27.7354
2004.61	24.155
2004.86	20.3877
2005.1	20.9753
2005.35	26.8426
2005.59	26.4877
2005.84	24.0747
2006.08	27.6451
2006.33	28.6844
2006.57	28.3221
2006.81	24.8621
2007.06	23.8246
2007.3	24.6534
2007.55	24.4277
2007.79	22.6846
2008.04	20.5121
2008.28	20.028
2008.53	20.4951
2008.77	21.9267
2009.01	28.7891
2009.26	28.586
2009.5	30.3101
2009.75	24.8314
2009.99	26.9024
2010.24	28.048
2010.48	22.4199
2010.73	23.46
2010.97	24.4581
2011.21	22.7323
2011.46	21.2432
2011.7	20.0509
2011.95	30.2675
2012.19	24.7799
2012.43	22.0597
2012.68	25.8184
2012.92	20.1618
2013.17	26.7341
2013.42	28.5857
2013.67	24.7795
2013.91	20.9936
2014.16	22.8437
2014.41	18.1097
2014.66	22.7639
2014.9	26.4798
2015.15	18.9604
2015.4	19.9016
2015.64	17.0955
2015.89	19.9241
2016.14	18.9938
2016.39	23.6789
2016.63	16.1866
2016.88	15.3008
2017.13	20.9502
2017.37	18.1254
2017.62	24.6912
2017.87	24.6715
2018.11	20.8891
2018.36	21.7972
2018.61	22.7023
2018.86	22.6725
2019.1	16.0787
2019.35	24.4852
2019.6	18.833
2019.84	24.439
2020.09	17.8703
2020.34	21.6109
2020.58	13.1796
2020.83	18.7955
2021.08	22.5386
2021.33	16.9236
2021.57	18.8016
2021.82	18.8021
2022.07	23.4816
2022.31	18.7916
2022.56	21.5901
2022.81	21.5752
2023.05	16.8762
2023.3	14.0483
2023.55	11.2267
2023.8	15.8883
2024.04	17.7428
2024.29	16.7919
2024.54	15.8431
2024.78	12.0818
2025.03	21.3991
2025.27	18.5719
2025.52	20.4153
2025.77	15.7268
2026.02	17.5733
2026.26	14.7498
2026.51	20.3538
2026.76	22.2498
2027	13.8984
2027.25	13.0194
2027.5	17.7569
2027.74	18.7337
2027.99	13.1109
2028.23	14.937
2028.48	11.1346
2028.73	12.8114
2028.98	14.8681
2029.22	13.2599
2029.47	12.1836
2029.72	13.1863
2029.96	13.9989
2030.21	11.1204
2030.45	9.17799
2030.7	11.0411
2030.95	9.12239
2031.19	11.0375
2031.44	14.8124
2031.69	11.0707
2031.93	11.0726
2032.18	12.9423
2032.43	14.8311
2032.67	14.8566
2032.92	18.6209
2033.17	12.1075
2033.41	13.0617
2033.66	16.8172
2033.91	14.9709
2034.15	14.9831
2034.4	15.8819
2034.64	11.1637
2034.89	12.9617
2035.14	12.9453
2035.38	11.1108
2035.63	9.26916
2035.87	11.1775
2036.12	14.9689
2036.37	10.3316
2036.61	9.39557
2036.86	8.42815
2037.11	13.1064
2037.35	14.0608
2037.6	14.9975
2037.84	12.1913
2038.09	15.9265
2038.34	10.311
2038.58	14.9771
2038.83	5.62302
2039.08	6.54978
2039.32	13.0816
2039.57	11.2039
2039.81	13.0625
2040.06	11.1821
2040.31	11.1653
2040.55	3.6838
2040.8	5.53654
2041.04	10.1876
2041.29	17.6364
2041.54	12.9645
2041.78	3.63904
2042.03	3.63818
2042.27	12.0216
2042.52	6.42443
2042.77	4.55052
2043.01	9.2072
2043.26	6.41492
2043.5	6.42376
2043.75	9.24039
2044	9.27039
2044.24	16.764
2044.49	9.31504
2044.73	8.38226
2044.98	12.1007
2045.23	4.61447
2045.47	12.0142
2045.72	12.1029
2045.96	10.2622
2046.21	8.49381
2046.45	7.66921
2046.7	12.2923
2046.95	6.62424
2047.19	5.64745
2047.44	5.65383
2047.68	4.70585
2047.93	12.1191
2048.17	5.58296
2048.42	7.45404
2048.67	0.00297928
2048.91	3.74017
2049.16	2.8181
2049.4	5.63587
2049.65	5.65344
2049.89	2.87622
2050.14	5.703
2050.39	2.92307
2050.63	4.81256
2050.88	3.89256
2051.12	4.83434
2051.37	7.63741
2051.61	2.95861
2051.86	4.81286
2052.11	4.81678
2052.35	6.69014
2052.6	0.167297
2052.84	5.7781
2053.09	4.85629
2053.33	5.80527
2053.58	7.69144
2053.82	7.71301
2054.07	4.94342
2054.31	4.02474
2054.56	7.77955
2054.8	10.5931
2055.05	4.04848
2055.3	8.72727
2055.54	5.92169
2055.79	4.04149
2056.03	3.10467
2056.28	7.78173
2056.52	3.10641
2056.77	2.17033
2057.01	3.10649
2057.26	4.98082
2057.5	2.18492
2057.75	10.6085
2058	5.0127
2058.24	-0.582947
2058.49	5.97799
2058.73	4.12821
2058.98	8.82633
2059.22	8.84582
2059.47	-6.11525
2059.71	5.12717
2059.96	3.26402
2060.2	7.01597
2060.45	2.33326
2060.69	-0.477699
2060.94	4.20134
2061.18	-1.40116
2061.43	5.16566
2061.67	3.30562
2061.92	4.25064
2062.16	3.32177
2062.41	-2.2878
2062.65	3.34062
2062.9	1.48031
2063.14	-5.06155
2063.39	2.44859
2063.63	5.27582
2063.88	8.10189
2064.12	-0.319332
2064.37	5.31572
2064.61	6.26469
2064.86	3.46614
2065.1	1.60633
2065.35	2.56452
2065.59	0.71294
2065.84	-1.14119
2066.08	2.63375
2066.33	-1.10315
2066.57	4.54538
2066.82	-0.140347
2067.06	-1.06652
2067.31	-3.87104
2067.55	-1.98082
2067.8	1.79136
2068.04	-0.071209
2068.29	3.70287
2068.53	6.53607
2068.78	4.66715
2069.02	9.38407
2069.27	-0.949028
2069.51	-0.00993347
2069.76	-0.01894
2070	7.47791
2070.25	3.71784
2070.49	-3.78288
2070.73	0.944801
2070.98	-2.77896
2071.22	1.95953
2071.47	9.48713
2071.71	1.95284
2071.96	4.85187
2072.2	3.00114
2072.45	1.12117
2072.69	3.94946
2072.94	1.13049
2073.18	-0.74976
2073.43	3.02398
2073.67	9.61889
2073.92	3.03914
2074.16	6.81529
2074.4	1.17729
2074.65	0.25008
2074.89	4.03646
2075.14	1.23418
2075.38	-0.622623
2075.63	2.23923
2075.87	-7.15585
2076.12	4.19571
2076.36	-4.28053
2076.6	0.449024
2076.85	3.29206
2077.09	2.34993
2077.34	-1.42887
2077.58	1.39757
2077.83	-1.45004
2078.07	2.32412
2078.31	8.94154
2078.56	-0.468887
2078.8	1.4315
2079.05	-0.441696
2079.29	-6.08684
2079.54	-6.06616
2079.78	-2.25645
2080.03	3.43039
2080.27	-5.99731
2080.51	0.633595
2080.76	2.53991
2081	-5.0104
2081.25	2.55257
2081.49	1.61252
2081.74	-0.269844
2081.98	-0.261448
2082.22	-4.03358
2082.47	0.70388
2082.71	0.717369
2082.96	0.729809
2083.2	1.68524
2083.45	1.6935
2083.69	1.70035
2083.93	-3.01735
2084.18	5.49657
2084.42	-2.05286
2084.67	0.790764
2084.91	-2.0338
2085.15	2.70244
2085.4	-0.122574
2085.64	2.72181
2085.89	-0.103405
2086.13	0.855289
2086.37	-1.01106
2086.62	3.74457
2086.86	-8.52823
2087.11	4.95911e-005
2087.35	-1.87544
2087.59	4.76724
2087.84	-1.8415
2088.08	2.90067
2088.32	0.0723763
2088.57	1.0303
2088.81	-3.68949
2089.06	1.05592
2089.3	-0.824432
2089.54	4.87465
2089.79	0.160706
2090.03	0.185825
2090.28	2.09579
2090.52	2.109
2090.76	4.96558
2091.01	2.13913
2091.25	-0.686802
2091.5	4.06815
2091.74	0.293732
2091.98	-2.52548
2092.23	3.19057
2092.47	2.27139
2092.72	-1.49507
2092.96	1.38229
2093.2	2.35788
2093.45	3.3329
2093.69	-0.441502
2093.93	7.18512
2094.18	-1.34555
2094.42	1.52748
2094.66	2.49237
2094.91	-3.20148
2095.15	1.56033
2095.39	1.567
2095.64	5.37015
2095.88	0.618233
2096.13	-5.07994
2096.37	-0.324512
2096.61	-2.21767
2096.86	3.49113
2097.1	-0.299976
2097.34	-0.296425
2097.59	-0.296379
2097.83	-1.24572
2098.07	-2.18849
2098.32	5.4142
2098.56	1.62536
2098.8	3.52655
2099.05	2.58878
2099.29	-0.24873
2099.53	-2.13881
2099.78	1.66616
2100.02	-5.91548
2100.27	3.5865
2100.51	-3.99253
2100.75	-0.181873
2101	-1.11404
2101.24	0.809719
2101.48	-4.86549
2101.73	0.850929
2101.97	-7.68229
2102.21	-2.92156
2102.45	3.7374
2102.7	0.900017
2102.94	2.8079
2103.18	1.86061
2103.43	-0.038166
2103.67	-2.88049
2103.92	1.87626
2104.16	3.78329
2104.4	1.89777
2104.64	3.81322
2104.89	-1.86262
2105.13	-4.69157
2105.37	1.02614
2105.62	4.84786
2105.86	4.8735
2106.1	-1.75538
2106.35	2.0645
2106.59	1.13186
2106.83	1.14696
2107.08	1.1616
2107.32	-2.62403
2107.56	8.79947
2107.8	-0.702263
2108.05	4.05209
2108.29	-3.55302
2108.53	-0.704945
2108.78	1.19213
2109.02	3.09166
2109.26	-1.64808
2109.51	-4.48194
2109.75	-0.657516
2109.99	0.315998
2110.23	5.07896
2110.48	1.29176
2110.72	5.10411
2110.96	-1.53334
2111.21	0.379314
2111.45	-0.558613
2111.69	-1.49964
2111.93	-2.44414
2112.18	-1.48719
2112.42	-6.22589
2112.66	-0.515633
2112.91	5.20088
2113.15	-4.27847
2113.39	-2.35978
2113.63	1.46675
2113.88	-2.31043
2114.12	2.46
2114.36	3.41993
2114.61	5.32837
2114.85	-0.361984
2115.09	0.603859
2115.33	2.51898
2115.58	1.5785
2115.82	3.48721
2116.06	4.4459
2116.31	3.50384
2116.55	-0.294605
2116.79	-4.09102
2117.03	3.51477
2117.28	2.57521
2117.52	5.43475
2117.76	0.702255
2118	2.60888
2118.25	-4.98201
2118.49	1.66759
2118.73	-1.18095
2118.97	-6.87563
2119.22	-1.18233
2119.46	-6.87
2119.7	-3.07439
2119.94	3.56358
2120.19	-1.17229
2120.43	-2.11429
2120.67	0.738926
2120.91	-3.03626
2121.16	4.56744
2121.4	0.795219
2121.64	-0.126942
2121.88	-0.100086
2122.13	-0.0745087
2122.37	2.79641
2122.61	-5.71927
2122.85	-0.953144
2123.1	-1.8815
2123.34	-0.912525
2123.58	-3.74252
2123.82	4.81767
2124.07	-2.76788
2124.31	-0.86153
2124.55	0.0921249
2124.79	-0.857113
2125.03	-0.864529
2125.28	3.86358
2125.52	-4.67631
2125.76	2.89828
2126	2.89458
2126.25	-0.894894
2126.49	0.997784
2126.73	1.94617
2126.97	1.00221
2127.21	-2.77903
2127.46	3.84335
2127.7	-2.7665
2127.94	-2.7553
2128.18	0.0917816
2128.43	-0.845367
2128.67	1.05574
2128.91	-0.820599
2129.15	-0.806328
2129.39	-0.794533
2129.64	6.7765
2129.88	1.11582
2130.12	2.07246
2130.36	-1.69625
2130.6	-1.68533
2130.85	1.15937
2131.09	-0.721497
2131.33	-0.713894
2131.57	0.236969
2131.81	4.0202
2132.06	4.02612
2132.3	4.03465
2132.54	3.09818
2132.78	2.15733
2133.02	1.2175
2133.27	2.16997
2133.51	-0.647362
2133.75	6.91824
2133.99	-6.27668
2134.23	0.343864
2134.48	-0.583168
2134.72	2.26411
2134.96	3.22072
2135.2	4.17711
2135.44	1.35861
2135.68	-0.517117
2135.93	3.26617
2136.17	-0.502853
2136.41	3.26771
2136.65	1.37939
2136.89	-3.32772
2137.14	0.459778
2137.38	-1.40916
2137.62	4.26306
2137.86	-1.37359
2138.1	4.31076
2138.34	2.43465
2138.59	-0.395107
2138.83	1.49326
2139.07	-0.367657
2139.31	-2.22223
2139.55	2.52062
2139.79	-5.03515
2140.03	-1.26924
2140.28	2.50537
2140.52	-0.314987
2140.76	0.63483
2141	-1.24036
2141.24	-2.17175
2141.49	3.48937
2141.73	-1.20423
2141.97	0.68301
2142.21	-2.13862
2142.45	-6.83498
2142.69	0.709995
2142.93	1.67663
2143.18	3.58312
2143.42	8.35626
2143.66	2.69418
2143.9	0.689812
2144.14	2.58344
2144.38	4.48822
2144.62	0.762417
2144.87	-0.144936
2145.11	-0.119751
2145.35	-0.135479
2145.59	-1.0566
2145.83	3.66178
2146.07	2.7331
2146.31	0.862854
2146.55	-2.88742
2146.8	-0.0567894
2147.04	-0.0463142
2147.28	-0.976788
2147.52	5.60851
2147.76	1.85702
2148	3.74387
2148.24	-2.82278
2148.48	4.70004
2148.73	3.76891
2148.97	3.77628
2149.21	0.96563
2149.45	-1.84666
2149.69	3.78672
2149.93	0.0255661
2150.17	1.90386
2150.42	3.77887
2150.66	-0.904831
2150.9	-0.895355
2151.14	5.67931
2151.38	2.88696
2151.62	6.66118
2151.86	-2.69427
2152.1	0.141644
2152.34	0.159969
2152.58	6.74815
2152.83	-2.62432
2153.07	3.00964
2153.31	3.01421
2153.55	0.207603
2153.79	-0.71944
2154.03	-2.58384
2154.27	6.79305
2154.51	2.10918
2154.75	-0.704239
2154.99	3.03298
2155.24	-3.52438
2155.48	2.08014
2155.72	3.01257
2155.96	3.94546
2156.2	2.07691
2156.44	-3.52447
2156.68	2.09034
2156.92	-0.699768
2157.16	3.98434
2157.4	0.26284
2157.64	-0.652805
2157.89	4.97528
2158.13	1.26245
2158.37	0.351215
2158.61	-5.24007
2158.85	-3.35625
2159.09	-1.47428
2159.33	1.33978
2159.57	-1.45562
2159.81	1.35382
2160.05	1.35781
2160.29	4.16105
2160.53	2.29436
2160.77	2.29703
2161.01	6.03428
2161.25	1.37667
2161.5	7.92044
2161.74	-1.40082
2161.98	1.40787
2162.22	1.42067
2162.46	7.03267
2162.7	-0.415737
2162.94	2.39677
2163.18	0.54108
2163.42	4.2796
2163.66	1.49033
2163.9	-1.29802
2164.14	-2.22123
2164.38	2.44898
2164.62	5.24827
2164.86	5.24789
2165.11	-0.336838
2165.35	0.611557
2165.59	1.5633
2165.83	4.37414
2166.07	0.662231
2166.31	-3.98198
2166.55	-0.24593
2166.79	1.62648
2167.03	-4.88759
2167.27	-3.01961
2167.51	-2.08107
2167.75	-1.14697
2167.99	-0.216782
2168.23	-0.227169
2168.47	-0.235455
2168.71	1.63045
2168.95	0.714081
2169.19	5.38026
2169.43	2.61286
2169.67	0.778343
2169.91	-0.122662
2170.15	-0.0904427
2170.39	-1.91794
2170.63	4.62616
2170.87	0.920471
2171.11	2.7938
2171.35	0.935566
2171.59	1.87625
2171.83	5.59161
2172.07	3.70627
2172.31	0.911541
2172.56	3.70431
2172.79	-0.937065
2173.04	5.57438
2173.28	5.58716
2173.51	2.81338
2173.76	4.68522
2174	8.42017
2174.24	-0.850334
2174.48	0.098053
2174.72	2.90291
2174.96	1.98862
2175.2	0.143684
2175.44	-0.772247
2175.68	2.95605
2175.92	4.82541
2176.16	-0.737652
2176.4	2.06153
2176.64	-4.43248
2176.88	8.58015
2177.12	0.230324
2177.36	-0.684189
2177.6	-0.668655
2177.84	-0.653584
2178.08	-1.56933
2178.32	-1.55333
2178.55	1.24279
2178.8	-5.25756
2179.03	-0.610287
2179.28	0.331017
2179.52	2.20434
2179.75	3.14775
2180	0.376965
2180.23	1.31933
2180.47	3.19
2180.71	1.3456
2180.95	4.14155
2181.19	1.36696
2181.43	-1.40543
2181.67	2.31858
2181.91	1.39805
2182.15	1.40616
2182.39	-0.438713
2182.63	5.13607
2182.87	-1.34995
2183.11	1.44251
2183.35	0.51873
2183.59	-1.33355
2183.83	2.3742
2184.07	3.30367
2184.31	-4.10478
2184.55	2.38844
2184.79	1.47324
2185.03	-0.36438
2185.27	-2.19895
2185.51	-4.03503
2185.75	3.39686
2185.99	-1.2173
2186.23	4.36727
2186.47	2.53638
2186.7	1.63199
2186.95	-2.05022
2187.18	1.68995
2187.42	-3.85062
2187.66	6.39062
2187.9	6.41658
2188.14	3.64693
2188.38	3.65477
2188.62	-0.0550919
2188.86	-1.90805
2189.1	3.66408
2189.34	5.52053
2189.58	0.880344
2189.82	2.73178
2190.06	2.73059
2190.3	-4.67903
2190.54	1.82141
2190.78	-1.87202
2191.01	7.41632
2191.25	3.72589
2191.49	3.73936
2191.73	6.53754
2191.97	1.91914
2192.21	3.79197
2192.45	0.100243
2192.69	2.90029
2192.93	1.06312
2193.17	3.86834
2193.41	7.60286
2193.65	2.05693
2193.89	-1.63152
2194.13	3.97483
2194.36	3.08492
2194.6	4.04498
2194.84	-2.44002
2195.08	-4.28878
2195.32	6.87325
2195.56	-1.48432
2195.8	5.02627
2196.04	1.31111
2196.28	3.16728
2196.52	5.94733
2196.76	1.30138
2197	0.373817
2197.23	1.30494
2197.47	4.09222
2197.71	-2.39545
2197.95	0.400242
2198.19	4.12476
2198.43	-1.42241
2198.67	-2.32592
2198.91	1.41136
2199.15	2.36782
2199.38	2.39859
2199.62	-0.360455
2199.86	-1.26064
2200.1	3.41626
2200.34	9.96518
2200.58	-0.226742
2200.82	3.53311
2201.06	4.49888
2201.3	4.52757
2201.54	1.75781
2201.77	3.61224
2202.01	-0.151985
2202.25	7.18489
2202.49	1.5525
2202.73	6.23688
2202.97	6.34608
2203.21	1.75122
2203.45	1.74918
2203.68	-0.108658
2203.92	1.80786
2204.16	3.85251
2204.4	0.0694389
2204.64	5.67239
2204.88	1.96372
2205.12	1.00907
2205.36	2.83866
2205.59	3.73991
2205.83	1.86285
2206.07	3.72671
2206.31	0.0211411
2206.55	5.6243
2206.79	1.91837
2207.03	3.77074
2207.26	1.92671
2207.5	1.01656
2207.74	-1.75205
2207.98	1.06046
2208.22	3.87457
2208.46	1.10604
2208.7	4.85157
2208.93	-5.36772
2209.17	6.75533
2209.41	3.04811
2209.65	0.269333
2209.89	1.21281
2210.13	2.15445
2210.36	2.16813
2210.6	5.91232
2210.84	-2.45237
2211.08	8.74791
2211.32	2.24576
2211.56	5.06145
2211.8	-0.511066
2212.03	2.30837
2212.27	-0.466866
2212.51	2.35038
2212.75	0.500114
2212.99	0.508316
2213.23	-3.216
2213.46	-0.411026
2213.7	-0.407284
2213.94	-1.3367
2214.18	2.40685
2214.42	5.22611
2214.66	2.46098
2214.89	0.625603
2215.13	-2.158
2215.37	3.45845
2215.61	0.672447
2215.85	3.48688
2216.08	0.698502
2216.32	-0.223701
2216.56	-1.14682
2216.8	-0.20332
2217.04	3.54002
2217.28	-2.05232
2217.51	1.69296
2217.75	1.70596
2217.99	-0.147953
2218.23	1.73024
2218.47	1.74065
2218.7	0.820137
2218.94	2.70363
2219.18	-2.88184
2219.42	0.873623
2219.66	0.893742
2219.9	-4.69625
2220.13	0.927189
2220.37	0.00835419
2220.61	-0.916618
2220.85	3.76486
2221.09	1.90468
2221.32	-2.76197
2221.56	2.84314
2221.8	3.77401
2222.04	2.83936
2222.27	-1.82779
2222.51	-2.7566
2222.75	0.0530472
2222.99	1.00064
2223.23	0.0846214
2223.46	-0.831528
2223.7	1.989
2223.94	-0.791183
2224.18	0.167698
2224.42	4.86707
2224.65	-0.717659
2224.89	-1.63079
2225.13	-2.5458
2225.37	1.21733
2225.6	2.17587
2225.84	2.20061
2226.08	-1.52371
2226.32	-3.37702
2226.56	2.26416
2226.79	0.408119
2227.03	1.36591
2227.27	-4.2389
2227.51	-1.4091
2227.74	0.482002
2227.98	2.37089
2228.22	6.13068
2228.46	-0.427265
2228.69	-3.23367
2228.93	1.46097
2229.17	-0.406784
2229.41	1.47547
2229.64	-1.32724
2229.88	-1.30956
2230.12	-1.28747
2230.36	5.30059
2230.6	-1.24815
2230.83	-4.98339
2231.07	2.54464
2231.31	2.56506
2231.55	-5.86557
2231.78	1.6692
2232.02	-3.0093
2232.26	1.70803
2232.5	-5.79209
2232.73	-4.83413
2232.97	2.70571
2233.21	1.78437
2233.45	-2.90054
2233.68	0.880562
2233.92	-0.041832
2234.16	0.915546
2234.39	2.81296
2234.63	4.70201
2234.87	-3.76347
2235.11	1.88689
2235.34	-2.81726
2235.58	-0.00237274
2235.82	-0.00540161
2236.06	-4.69696
2236.29	3.77764
2236.53	0.0278091
2236.77	0.980114
2237	0.991192
2237.24	3.82476
2237.48	1.02351
2237.72	2.92501
2237.95	-3.63657
2238.19	-1.7255
2238.43	-2.64116
2238.67	3.03508
2238.9	1.17193
2239.14	-0.690434
2239.38	-3.49458
2239.61	4.06484
2239.85	2.18243
2240.09	3.12765
2240.33	-8.1936
2240.56	1.23312
2240.8	1.23611
2241.04	2.20872
2241.27	-4.36771
2241.51	5.07869
2241.75	-2.45774
2241.99	4.15992
2242.22	3.22803
2242.46	1.35345
2242.7	7.03085
2242.93	4.21413
2243.17	3.27959
2243.41	3.28608
2243.64	-1.43181
2243.88	3.28849
2244.12	-0.48188
2244.36	-2.36227
2244.59	-0.465004
2244.83	0.494278
2245.07	5.23754
2245.3	1.48915
2245.54	1.51532
2245.78	-0.355297
2246.01	-3.17381
2246.25	0.625908
2246.49	0.643799
2246.72	0.660149
2246.96	6.34912
2247.2	-1.20391
2247.43	1.65007
2247.67	1.6632
2247.91	-3.0589
2248.14	5.46658
2248.38	-1.1531
2248.62	-2.09435
2248.85	3.58852
2249.09	-2.08392
2249.33	-4.91727
2249.56	1.71205
2249.8	0.782074
2250.04	-1.09714
2250.27	-0.143433
2250.51	1.75111
2250.75	4.5879
2250.98	-2.98304
2251.22	0.797138
2251.46	-2.9864
2251.69	2.68765
2251.93	2.69254
2252.17	0.811138
2252.4	0.823956
2252.64	-2.9439
2252.88	1.80225
2253.11	3.71788
2253.35	-1.92756
2253.59	2.83284
2253.82	0.0129967
2254.06	3.82227
2254.3	3.8391
2254.53	-0.883694
2254.77	0.0781364
2255.01	0.0863457
2255.24	-3.70332
2255.48	-0.849472
2255.72	-3.68638
2255.95	2.01176
2256.19	2.96935
2256.42	2.03677
2256.66	2.05333
2256.9	-2.67489
2257.13	2.08424
2257.37	2.09969
2257.61	4.01342
2257.84	0.230812
2258.08	-0.706463
2258.32	4.05131
2258.55	1.21164
2258.79	2.17162
2259.02	1.23352
2259.26	4.09732
2259.5	2.21183
2259.73	-0.627098
2259.97	-1.56657
2260.2	2.24725
2260.44	1.30889
2260.68	-0.580742
2260.91	0.381268
2261.15	1.34635
2261.39	2.31976
2261.62	-5.27412
2261.86	-2.41108
2262.1	-3.3531
2262.33	2.36688
2262.57	2.37789
2262.8	-7.12676
2263.04	-0.447357
2263.28	3.37881
2263.51	-4.22139
2263.75	2.46819
2263.98	0.585793
2264.22	0.611233
2264.46	-1.27198
2264.69	-1.24955
2264.93	-6.00251
2265.16	8.33581
2265.4	-1.19619
2265.64	-0.226337
2265.87	-4.9944
2266.11	1.70065
2266.34	-2.11751
2266.58	1.69905
2266.81	0.739269
2267.05	-2.12973
2267.29	-2.13323
2267.52	4.545
2267.76	1.68161
2267.99	2.63417
2268.23	1.67584
2268.47	-1.18668
2268.7	3.58421
2268.94	-2.12892
2269.17	-4.02386
2269.41	1.71474
2269.65	6.50449
2269.88	2.70835
2270.12	0.819958
2270.35	3.7079
2270.59	-0.0913887
2270.82	-2.94286
2271.06	1.8472
2271.3	4.73168
2271.53	-5.7698
2271.77	-2.8899
2272	-0.00853729
2272.24	7.65868
2272.47	-1.89599
2272.71	1.9377
2272.95	0.98933
2273.18	1.95468
2273.42	1.96359
2273.65	2.92909
2273.89	-0.890087
2274.12	0.0754433
2274.36	-3.74454
2274.6	-0.865208
2274.83	-0.856899
2275.07	3.93783
2275.3	-0.839264
2275.54	-0.830822
2275.77	3.96534
2276.01	2.05473
2276.24	0.152702
2276.48	2.08535
2276.72	3.06142
2276.95	-0.75491
2277.18	1.17713
2277.42	6.94598
2277.66	1.21525
2277.89	-1.63917
2278.13	0.303783
2278.36	0.329582
2278.6	1.30282
2278.83	-3.49009
2279.07	0.35796
2279.3	-2.51938
2279.54	3.24571
2279.78	1.32201
2280.01	0.346352
2280.24	4.1763
2280.48	1.29052
2280.72	2.24402
2280.95	-0.636406
2281.19	0.321266
2281.42	-2.55364
2281.66	-1.59516
2281.89	0.32299
2282.13	0.33374
2282.36	0.342728
2282.6	-4.43877
2282.83	3.24674
2283.07	1.34565
2283.3	6.1593
2283.54	7.13961
2283.77	-1.47435
2284.01	3.3549
2284.24	-2.38433
2284.48	-4.28091
2284.71	-1.37904
2284.95	2.47898
2285.19	-0.390274
2285.42	-1.33675
2285.65	-2.29021
2285.89	-1.32106
2286.12	0.599064
2286.36	-1.33699
2286.59	-1.33304
2286.83	1.56143
2287.06	-2.27349
2287.3	4.49011
2287.54	-0.298962
2287.77	1.63944
2288	0.686939
2288.24	2.63213
2288.47	-6.99978
2288.71	-1.22101
2288.94	1.66684
2289.18	-2.18818
2289.41	-1.2337
2289.65	0.679279
2289.88	5.47821
2290.12	-0.30732
2290.35	-3.19285
2290.59	-2.2306
2290.82	1.62024
2291.06	-2.21892
2291.29	-0.284122
2291.53	-1.22843
2291.76	-2.17017
2292	1.69449
2292.23	-4.06696
2292.47	0.759064
2292.7	0.773422
2292.94	2.71612
2293.17	6.58567
2293.41	1.78268
2293.64	1.79519
2293.88	2.7696
2294.11	0.850033
2294.34	1.8155
2294.58	-0.112328
2294.81	3.7399
2295.05	2.77225
2295.28	-2.04562
2295.52	-2.04655
2295.75	-3.01062
2295.99	0.839874
2296.22	-2.04872
2296.46	4.68362
2296.69	-1.10466
2296.93	1.78417
2297.16	-3.97954
2297.39	1.80538
2297.63	-0.105488
2297.86	0.872894
2298.1	-1.9976
2298.33	0.912632
2298.57	2.85527
2298.8	0.940086
2299.04	3.84632
2299.27	0.972019
2299.51	0.987423
2299.74	0.0364189
2299.97	-0.918499
2300.21	-0.914032
2300.44	-1.87326
2300.68	-0.904594
2300.91	2.00011
2301.15	0.0837059
2301.38	1.05987
2301.61	6.86144
2301.85	-4.71269
2302.08	1.08504
2302.32	0.123451
2302.55	0.124428
2302.79	0.126419
2303.02	2.06297
2303.25	1.10188
2303.49	-2.75592
2303.72	4.96907
2303.96	-0.81535
2304.19	0.159435
2304.43	2.10324
2304.66	-1.74604
2304.89	0.195362
2305.13	5.03615
2305.36	-0.744801
2305.6	-3.6328
2305.83	0.239067
2306.07	-2.6507
2306.3	-0.707268
2306.53	3.16946
2306.77	0.277161
2307	0.283241
2307.24	-1.64538
2307.47	0.291401
2307.7	6.09105
2307.94	-2.60739
2308.17	0.293297
2308.41	-5.50297
2308.64	-5.50127
2308.87	-0.665634
2309.11	-4.52309
2309.34	1.2862
2309.58	2.26591
2309.81	-0.617065
2310.04	-1.56464
2310.28	0.384613
2310.51	0.394321
2310.75	1.36821
2310.98	-3.46493
2311.21	2.33945
2311.45	-0.567833
2311.68	-2.52165
2311.92	1.3191
2312.15	3.23867
2312.38	3.23141
2312.62	-4.49205
2312.85	2.26083
2313.08	0.329926
2313.32	-2.56023
2313.55	-3.51502
2313.79	3.26015
2314.02	3.2845
2314.25	2.33827
2314.49	-5.37251
2314.72	6.24399
2314.95	-2.43375
2315.19	0.487972
2315.42	2.43605
2315.66	-3.37478
2315.89	1.45462
2316.12	1.45025
2316.36	-0.490337
2316.59	1.42208
2316.82	-4.38055
2317.06	-2.45009
2317.29	-1.48031
2317.52	1.42411
2317.76	-0.499382
2317.99	-5.31187
2318.23	4.36191
2318.46	-1.4448
2318.69	-2.41264
2318.93	1.4489
2319.16	0.481251
2319.39	-0.486526
2319.63	-5.31347
2319.86	1.44213
2320.09	3.37372
2320.33	9.16869
2320.56	0.490864
2320.79	-0.469215
2321.03	-3.3548
2321.26	1.48279
2321.5	1.4959
2321.73	3.4411
2321.96	0.559719
2322.2	-0.387947
2322.43	-1.33492
2322.66	-4.21801
2322.9	3.52528
2323.13	9.32845
2323.36	6.43602
2323.6	-1.28942
2323.83	5.48661
2324.06	4.52846
2324.3	2.6013
2324.53	5.50535
2324.76	1.64055
2325	8.401
2325.23	6.45671
2325.46	6.4433
2325.7	5.47053
2325.93	10.2939
2326.16	9.32261
2326.4	20.8995
2326.63	25.7157
2326.86	35.3538
2327.09	50.7756
2327.33	65.2262
2327.56	72.9202
2327.79	66.1595
2328.03	55.5431
2328.26	33.3696
2328.49	27.5957
2328.73	16.0352
2328.96	15.0781
2329.19	17.9623
2329.43	16.0282
2329.66	12.1639
2329.89	20.8322
2330.13	17.9451
2330.36	12.1792
2330.59	12.1803
2330.82	5.43892
2331.06	0.624207
2331.29	-0.335258
2331.52	1.5992
2331.76	1.61137
2331.99	2.58779
2332.22	-0.286301
2332.46	2.59656
2332.69	2.59219
2332.92	1.62734
2333.16	-0.299816
2333.39	-0.300671
2333.62	-2.22658
2333.85	2.58659
2334.09	2.58724
2334.32	-0.301323
2334.55	-0.30378
2334.79	0.65152
2335.02	1.61149
2335.25	-0.311642
2335.48	-5.11643
2335.72	2.57935
2335.95	-3.18362
2336.18	-1.25212
2336.41	-0.286728
2336.65	-2.20961
2336.88	0.677338
2337.11	0.680401
2337.34	5.49106
2337.58	2.60932
2337.81	-0.271797
2338.04	3.5747
2338.28	0.692596
2338.51	-2.1881
2338.74	6.46534
2338.97	-1.22029
2339.21	-2.17481
2339.44	-3.12999
2339.67	-3.12515
2339.91	-0.237911
2340.14	-1.1977
2340.37	2.64581
2340.6	-1.20068
2340.84	-6.00666
2341.07	-0.247726
2341.3	4.54559
2341.53	-1.22483
2341.77	-4.11525
2342	5.47021
2342.23	0.670528
2342.46	4.50336
2342.7	-2.21075
2342.93	6.41727
2343.16	0.667324
2343.39	6.42283
2343.63	4.51101
2343.86	-2.19648
2344.09	0.682117
2344.32	-1.22956
2344.56	3.57135
2344.79	3.57785
2345.02	1.66389
2345.25	-2.16875
2345.49	-1.21012
2345.72	0.704044
2345.95	6.44519
2346.18	-0.264999
2346.41	3.56207
2346.65	-0.267483
2346.88	-0.265396
2347.11	-2.17817
2347.34	-3.13493
2347.58	-0.261467
2347.81	2.61432
2348.04	-2.16722
2348.27	-1.20255
2348.5	1.68001
2348.74	-0.227165
2348.97	-3.09599
2349.2	1.69246
2349.43	-0.225872
2349.67	6.45865
2349.9	0.701134
2350.13	-0.273739
2350.36	-3.1629
2350.59	-1.2795
2350.83	0.575043
2351.06	1.43404
2351.29	3.41821
2351.52	-2.14973
2351.75	-0.186314
2351.99	1.63686
2352.22	1.58875
2352.45	3.50595
2352.68	-3.16615
2352.91	2.53631
2353.15	0.590591
2353.38	3.41961
2353.61	2.48323
2353.84	-1.32758
2354.07	0.572723
2354.31	-1.32777
2354.54	-7.04031
2354.77	3.45224
2355	1.56172
2355.23	-0.341839
2355.47	2.51738
2355.7	2.51673
2355.93	-1.29484
2356.16	4.41883
2356.39	0.604183
2356.63	-6.07156
2356.86	-1.32854
2357.09	1.51207
2357.32	3.40801
2357.55	1.50113
2357.79	1.49673
2358.02	-4.21069
2358.25	-0.411346
2358.48	-0.412964
2358.71	-3.26437
2358.94	2.43034
2359.18	0.528416
2359.41	4.32797
2359.64	-3.27126
2359.87	0.525677
2360.1	-3.27789
2360.33	2.41241
2360.57	-6.13879
2360.8	-0.451229
2361.03	-1.40769
2361.26	-2.36399
2361.49	-1.4236
2361.72	-2.38008
2361.96	4.24651
2362.19	3.2884
2362.42	0.435089
2362.65	-0.521828
2362.88	1.36401
2363.11	2.30343
2363.34	-0.542572
2363.58	-0.547455
2363.81	0.395428
2364.04	-0.553902
2364.27	5.11892
2364.5	-0.562046
2364.73	-7.18751
2364.97	2.26482
