#Acq. time (s)=	30
#Accumulations=	2
#Range (cm-¹)=	1200...2365
#Windows=	3
#Auto scanning=	Off
#Autofocus=	Off
#Macrospot=	Off
#AutoExposure=	Off
#Spike filter=	Multiple accum.
#Delay time (s)=	2
#Binning=	1
#Readout mode=	Signal
#DeNoise=	Off
#ICS correction=	On
#Dark correction=	Off
#Inst. Process=	Off
#Detector Gain=	Best Dynamic
#Detector ADC=	50 kHz HS
#Detector temperature (°C)=	-60.28
#Instrument=	LabRAM HR Evol
#Detector=	SIN-EM FIVIS
#Objective=	x100_VIS_LWD
#Grating=	1800 (450-850nm)
#ND Filter=	100%
#Laser=	532nm_Edge
#Hole=	100.021
#Temperature=	0
#Range=	Visible
#StageXY=	75x50mm Scan+
#StageZ=	Z motor
#X (µm)=	0
#Y (µm)=	0
#Z (µm)=	-66.9
#Full time(mm:ss)=	3:24
#Project=	21_11_26
#Sample=	BU19(2)w
#Site=	
#Title=	BU19(2)w-A-FF1-FI07-V_1800 (450-850nm)_532nm_Edge_100%_x100_VIS_LWD_H100um_30sX2
#Remark=	
#Date=	26.11.2021 16:46
#Acquired=	26.11.2021 16:46:02
#Base:Fit=	16.12.2021 16:00:56
#Base:Fit=	16.12.2021 16:08:03
#Base:Sub=	16.12.2021 16:08:04
1202.72	2.96459
1203	9.71339
1203.28	6.67126
1203.56	15.3872
1203.84	16.543
1204.11	3.74358
1204.39	3.86087
1204.67	8.31481
1204.95	5.24846
1205.23	6.45274
1205.5	3.34084
1205.78	16.3372
1206.06	1.40273
1206.34	0.42923
1206.61	11.2541
1206.89	-0.445618
1207.17	1.79489
1207.45	2.96715
1207.73	4.14846
1208	3.18774
1208.28	6.51432
1208.56	11.9749
1208.84	2.44413
1209.11	1.47633
1209.39	6.92544
1209.67	0.621498
1209.95	2.87691
1210.23	7.26438
1210.5	0.951134
1210.78	-3.24023
1211.06	5.38721
1211.34	2.2701
1211.61	4.48602
1211.89	3.50453
1212.17	-2.81842
1212.45	2.59022
1212.72	2.67451
1213	-1.5058
1213.28	-0.359955
1213.56	-2.40273
1213.83	-3.37565
1214.11	-2.22677
1214.39	4.2643
1214.67	2.23607
1214.94	5.52786
1215.22	1.36408
1215.5	-1.7385
1215.78	0.479889
1216.05	0.56543
1216.33	5.95695
1216.61	-0.366341
1216.89	-2.43821
1217.16	0.807831
1217.44	-0.192711
1217.72	3.05759
1218	-0.0676727
1218.27	1.05907
1218.55	9.61561
1218.83	3.31042
1219.1	-4.04737
1219.38	2.39298
1219.66	-8.14667
1219.94	2.53016
1220.21	0.470512
1220.49	4.78546
1220.77	0.617073
1221.04	-3.55669
1221.32	-3.49215
1221.6	-3.43432
1221.88	-2.31734
1222.15	9.3879
1222.43	-12.8246
1222.71	-1.13873
1222.98	-2.16854
1223.26	-0.0227432
1223.54	1.06441
1223.81	-3.13192
1224.09	1.13159
1224.37	-5.17097
1224.65	-4.07093
1224.92	-1.91299
1225.2	2.35892
1225.48	2.41535
1225.76	-1.73988
1226.03	0.436699
1226.31	-2.66491
1226.59	-2.61357
1226.86	2.71493
1227.14	1.69841
1227.42	3.84919
1227.69	-0.358978
1227.97	-7.75681
1228.25	3.83875
1228.52	3.84335
1228.8	3.81747
1229.08	-2.49925
1229.35	-7.71073
1229.63	-5.38901
1229.91	4.30699
1230.18	-3.10414
1230.46	0.033844
1230.74	1.10513
1231.01	2.21098
1231.29	1.15623
1231.57	4.20122
1231.84	0.0545578
1232.12	3.24721
1232.4	1.18397
1232.67	1.21528
1232.95	0.202652
1233.23	2.33875
1233.5	-1.83199
1233.78	0.30513
1234.06	-0.703766
1234.33	1.44111
1234.61	-2.71767
1234.89	-3.72212
1235.16	-1.57298
1235.44	-0.481445
1235.71	0.610916
1235.99	4.85929
1236.27	5.95051
1236.54	-4.53218
1236.82	-7.66245
1237.1	3.92107
1237.37	0.782639
1237.65	2.8892
1237.93	1.84176
1238.2	9.19299
1238.48	-1.3017
1238.76	4.99523
1239.03	-3.38818
1239.31	6.0646
1239.58	-3.35431
1239.86	-1.23779
1240.14	2.9772
1240.41	3.00113
1240.69	3.02685
1240.97	3.05463
1241.24	3.08395
1241.52	1.01488
1241.79	-3.16023
1242.07	-1.05286
1242.35	1.05842
1242.62	2.1311
1242.9	-6.22507
1243.18	1.14415
1243.45	8.51445
1243.73	-12.4299
1244	4.36451
1244.28	4.39106
1244.56	5.45949
1244.83	0.233772
1245.11	2.34324
1245.39	4.44279
1245.66	7.58598
1245.94	15.9557
1246.21	-0.806137
1246.49	3.38976
1246.76	0.262169
1247.04	8.65479
1247.32	3.43776
1247.59	3.44913
1247.87	-2.81452
1248.14	11.846
1248.42	11.8315
1248.7	3.4647
1248.97	12.8902
1249.25	-0.684937
1249.52	3.52048
1249.8	11.8986
1250.08	3.54447
1250.35	12.9739
1250.63	12.9712
1250.9	1.46442
1251.18	11.9144
1251.45	4.59756
1251.73	2.50891
1252.01	0.420952
1252.28	6.68815
1252.56	9.81998
1252.83	3.55418
1253.11	10.8582
1253.39	11.8993
1253.66	9.81724
1253.94	9.83063
1254.21	8.81325
1254.49	8.8416
1254.76	7.82796
1255.04	15.1567
1255.31	5.77145
1255.59	12.0556
1255.87	7.89063
1256.14	16.2525
1256.42	6.87003
1256.69	11.0656
1256.97	13.1786
1257.24	13.1944
1257.52	20.5127
1257.79	25.7326
1258.07	22.6023
1258.35	33.048
1258.62	30.9621
1258.9	23.6535
1259.17	23.6417
1259.45	23.6503
1259.72	24.7161
1260	25.785
1260.27	23.7476
1260.55	28.954
1260.82	35.2032
1261.1	46.6533
1261.37	53.9373
1261.65	53.9272
1261.92	57.0848
1262.2	69.7404
1262.48	82.4834
1262.75	95.1453
1263.02	94.881
1263.3	113.467
1263.58	125.905
1263.85	116.716
1264.13	123.138
1264.4	97.1937
1264.68	89.9665
1264.95	76.2841
1265.23	60.5803
1265.5	45.9579
1265.78	38.6421
1266.05	31.3179
1266.33	31.3273
1266.6	29.2548
1266.88	28.2333
1267.15	20.9452
1267.43	20.9769
1267.7	22.0576
1267.98	18.9569
1268.25	17.9506
1268.53	11.7193
1268.8	22.2329
1269.08	32.7365
1269.35	20.1917
1269.63	18.1179
1269.9	24.4091
1270.18	21.2554
1270.45	22.2843
1270.73	20.1805
1271	18.075
1271.28	14.9302
1271.55	25.3994
1271.83	15.9799
1272.1	24.3683
1272.38	21.2614
1272.65	23.3923
1272.93	21.345
1273.2	17.1897
1273.47	25.6071
1273.75	17.2589
1274.03	23.5841
1274.3	23.6204
1274.57	21.5496
1274.85	19.4673
1275.12	27.866
1275.4	24.731
1275.67	23.7039
1275.95	32.1248
1276.22	23.7596
1276.5	27.9928
1276.77	32.2222
1277.05	30.1541
1277.32	31.2305
1277.6	37.5706
1277.87	44.9642
1278.14	38.6987
1278.42	39.7843
1278.69	51.3825
1278.97	52.4819
1279.24	58.8256
1279.52	64.1199
1279.79	73.5927
1280.07	88.3199
1280.34	108.297
1280.61	135.647
1280.89	172.489
1281.16	229.328
1281.44	307.276
1281.71	410.551
1281.99	567.472
1282.26	745.362
1282.53	1013.89
1282.81	1290.92
1283.08	1567.56
1283.36	1846.64
1283.63	2045.76
1283.91	1984.05
1284.18	1798.03
1284.45	1385.85
1284.73	969.568
1285	657.867
1285.28	438.698
1285.55	300.497
1285.83	223.527
1286.1	167.747
1286.37	116.213
1286.65	86.7412
1286.92	82.5161
1287.2	75.1601
1287.47	65.6919
1287.75	49.8984
1288.02	50.9461
1288.29	55.159
1288.57	22.5515
1288.84	40.4615
1289.12	39.4342
1289.39	29.9944
1289.66	39.5053
1289.94	24.8011
1290.21	19.5727
1290.49	32.2472
1290.76	25.9443
1291.03	25.9517
1291.31	22.8049
1291.58	16.5024
1291.86	22.8394
1292.13	20.7482
1292.4	19.7147
1292.68	17.633
1292.95	27.1259
1293.22	10.2876
1293.5	16.6303
1293.77	13.5179
1294.05	13.5727
1294.32	23.1183
1294.59	13.6587
1294.87	21.0609
1295.14	20.0205
1295.42	17.9481
1295.69	22.2269
1295.96	15.9646
1296.24	11.8221
1296.51	10.8208
1296.79	12.9648
1297.06	11.9315
1297.33	15.115
1297.61	13.0086
1297.88	6.67449
1298.15	10.9043
1298.43	14.073
1298.7	19.3863
1298.97	5.67323
1299.25	12.0188
1299.52	18.3649
1299.79	8.87367
1300.07	7.8407
1300.34	2.59924
1300.62	5.79811
1300.89	7.93583
1301.16	10.068
1301.44	3.7543
1301.71	12.2293
1301.98	6.98759
1302.25	7.02435
1302.53	3.88709
1302.8	4.97057
1303.08	6.05121
1303.35	10.2966
1303.62	10.3133
1303.9	5.04484
1304.17	-1.26754
1304.44	6.15178
1304.72	3.01029
1304.99	8.31536
1305.26	7.27664
1305.54	6.23409
1305.81	11.5208
1306.08	4.14343
1306.35	9.42706
1306.63	-3.2175
1306.9	6.29559
1307.18	1.05016
1307.45	3.19372
1307.72	-0.995041
1308	-2.02235
1308.27	4.33383
1308.54	-1.96211
1308.81	2.28141
1309.09	3.36901
1309.36	1.29987
1309.63	-3.93636
1309.91	1.37882
1310.18	-2.80618
1310.45	-4.88887
1310.73	-4.86311
1311	3.60934
1311.27	3.64273
1311.55	6.84339
1311.82	8.98833
1312.09	-5.75169
1312.37	2.73598
1312.64	-2.50166
1312.91	3.86981
1313.18	-1.38118
1313.46	-1.36033
1313.73	-5.55371
1314	-1.30497
1314.28	0.833206
1314.55	-1.2457
1314.82	-0.153465
1315.09	-3.2811
1315.37	-2.18432
1315.64	2.08064
1315.91	-6.3257
1316.18	-1.00308
1316.46	3.25223
1316.73	0.113068
1317	3.31214
1317.28	-0.88018
1317.55	2.32222
1317.82	-0.802025
1318.09	-0.760986
1318.37	-1.77824
1318.64	3.54136
1318.91	-6.98671
1319.18	4.66974
1319.46	-2.69202
1319.73	1.56631
1320	0.542923
1320.28	2.6964
1320.55	-5.7185
1320.82	2.76524
1321.09	2.79115
1321.37	1.75582
1321.64	1.77252
1321.91	0.731674
1322.18	4.9771
1322.46	-1.33603
1322.73	-3.41752
1323	2.93849
1323.27	-4.41565
1323.55	-1.22755
1323.82	3.03545
1324.09	2.02203
1324.36	-1.10189
1324.64	-1.06574
1324.91	-2.0808
1325.18	0.0646439
1325.45	-4.1101
1325.73	2.23772
1326	1.19151
1326.27	-8.28728
1326.54	-1.97545
1326.81	-5.11156
1327.09	4.39146
1327.36	-1.85918
1327.63	0.329964
1327.9	-0.659286
1328.18	4.67335
1328.45	6.84993
1328.72	2.70073
1328.99	-3.56608
1329.27	2.81106
1329.54	-3.48642
1329.81	5.00179
1330.08	-1.29026
1330.35	0.855804
1330.63	-3.33077
1330.9	6.1906
1331.17	-2.2199
1331.44	-2.19735
1331.71	-0.0728531
1331.99	7.31245
1332.26	4.17071
1332.53	2.08831
1332.8	-4.20327
1333.07	3.18093
1333.35	0.0447311
1333.62	6.37283
1333.89	-3.06369
1334.16	3.26459
1334.43	0.137863
1334.71	1.21407
1334.98	-2.95765
1335.25	-2.92722
1335.52	3.40018
1335.79	1.33286
1336.07	0.316208
1336.34	2.44716
1336.61	-0.664497
1336.88	-0.628822
1337.15	1.50492
1337.43	-7.89093
1337.7	0.534264
1337.97	4.76411
1338.24	1.64877
1338.51	5.86862
1338.78	-2.4756
1339.06	0.701035
1339.33	-1.35478
1339.6	-0.263908
1339.87	0.831497
1340.14	1.9283
1340.42	1.9761
1340.69	-2.16414
1340.96	8.35706
1341.23	7.35473
1341.5	4.25639
1341.77	-4.0791
1342.04	-0.898018
1342.32	5.41975
1342.59	-6.06119
1342.86	2.34122
1343.13	-8.09013
1343.4	2.40881
1343.67	7.68052
1343.95	1.45055
1344.22	3.58928
1344.49	3.63829
1344.76	-1.54314
1345.03	-1.50097
1345.3	1.67355
1345.58	-1.42893
1345.85	12.1849
1346.12	2.81102
1346.39	1.79228
1346.66	-1.32372
1346.93	-0.251625
1347.2	-0.222023
1347.47	5.02163
1347.75	4.00876
1348.02	0.91795
1348.29	2.0011
1348.56	4.12907
1348.83	5.21562
1349.1	1.08621
1349.37	9.45852
1349.65	-0.922337
1349.92	6.40583
1350.19	4.36052
1350.46	-6.0122
1350.73	3.39502
1351	9.67244
1351.27	0.340885
1351.54	4.54148
1351.81	9.77399
1352.09	-0.579643
1352.36	2.58928
1352.63	3.68744
1352.9	7.9132
1353.17	3.82362
1353.44	4.92571
1353.71	6.07566
1353.98	6.19081
1354.25	0.96936
1354.53	8.20488
1354.8	6.10561
1355.07	7.20359
1355.34	4.14339
1355.61	2.09394
1355.88	7.32652
1356.15	12.5964
1356.42	2.26389
1356.69	9.57328
1356.96	7.5406
1357.24	5.50923
1357.51	9.70849
1357.78	12.8662
1358.05	14.983
1358.32	7.75572
1358.59	11.9467
1358.86	13.0241
1359.13	10.9863
1359.4	5.83831
1359.67	5.88106
1359.94	10.0729
1360.22	12.1804
1360.49	12.2112
1360.76	6.02649
1361.03	13.3181
1361.3	11.2933
1361.57	16.5242
1361.84	10.3593
1362.11	9.37249
1362.38	15.6309
1362.65	14.6399
1362.92	10.5439
1363.19	12.6654
1363.46	21.0069
1363.73	17.9674
1364	19.0664
1364.28	18.0939
1364.55	22.29
1364.82	27.517
1365.09	29.6326
1365.36	20.3504
1365.63	16.2449
1365.9	16.2804
1366.17	23.5604
1366.44	16.3533
1366.71	13.2857
1366.98	19.5225
1367.25	17.4814
1367.52	20.6238
1367.79	21.7034
1368.06	30.0367
1368.33	26.9967
1368.6	52.899
1368.87	79.8383
1369.15	106.781
1369.41	104.781
1369.68	77.9622
1369.95	46.9837
1370.23	36.6883
1370.5	32.597
1370.77	26.4272
1371.04	23.3707
1371.31	28.5752
1371.58	26.5396
1371.85	21.403
1372.12	29.6818
1372.39	24.5442
1372.66	25.6008
1372.93	24.6021
1373.2	25.6732
1373.47	20.5631
1373.74	23.6991
1374.01	16.5319
1374.28	25.8537
1374.55	32.0842
1374.82	36.254
1375.09	27.0298
1375.36	33.254
1375.63	32.282
1375.9	40.5898
1376.17	29.3102
1376.44	25.249
1376.71	36.6123
1376.98	33.5548
1377.25	35.6376
1377.52	34.6247
1377.79	35.7203
1378.06	36.8285
1378.33	38.9805
1378.6	32.9017
1378.87	44.3455
1379.14	49.5727
1379.41	54.7787
1379.68	48.6337
1379.95	52.7963
1380.22	48.7061
1380.49	50.7756
1380.76	51.7726
1381.03	58.9786
1381.3	53.8482
1381.57	70.3781
1381.84	72.4566
1382.11	82.7296
1382.38	83.7424
1382.65	88.8729
1382.92	82.7155
1383.19	109.396
1383.46	111.456
1383.73	131.973
1384	141.222
1384.27	186.359
1384.54	217.18
1384.81	269.551
1385.08	322.992
1385.34	445.223
1385.61	596.326
1385.88	858.308
1386.15	1263.09
1386.42	1919.47
1386.69	2899.75
1386.96	3943.68
1387.23	4547.64
1387.5	4371.62
1387.77	3328.57
1388.04	2172.45
1388.31	1326
1388.58	786.376
1388.85	505.91
1389.12	349.659
1389.39	257.565
1389.66	200.144
1389.93	161.207
1390.2	137.578
1390.46	128.25
1390.73	108.755
1391	97.5252
1391.27	77.0186
1391.54	85.2603
1391.81	76.0791
1392.08	57.6619
1392.35	57.6868
1392.62	60.7882
1392.89	51.6081
1393.16	56.7665
1393.43	55.784
1393.7	48.6624
1393.97	44.6134
1394.23	50.7993
1394.5	38.5666
1394.77	38.615
1395.04	42.7578
1395.31	39.7524
1395.58	34.7048
1395.85	34.769
1396.12	28.6854
1396.39	33.8548
1396.66	41.0657
1396.93	40.0848
1397.2	29.8937
1397.46	34.0237
1397.73	26.9007
1398	39.2205
1398.27	44.3869
1398.54	29.1039
1398.81	32.2363
1399.08	34.3417
1399.35	27.2378
1399.62	34.4681
1399.89	30.4371
1400.16	25.3809
1400.42	35.6686
1400.69	31.6394
1400.96	26.5944
1401.23	23.5849
1401.5	18.5147
1401.77	30.866
1402.04	29.8939
1402.31	28.9505
1402.58	28.0248
1402.84	32.2297
1403.11	32.3202
1403.38	36.506
1403.65	33.4922
1403.92	36.6257
1404.19	35.6332
1404.46	36.662
1404.73	32.6237
1404.99	37.7979
1405.26	47.072
1405.53	48.1322
1405.8	55.344
1406.07	62.5542
1406.34	66.6882
1406.61	73.903
1406.87	88.2939
1407.14	104.752
1407.41	113.016
1407.68	146.912
1407.95	157.229
1408.22	192.152
1408.49	213.751
1408.76	224.073
1409.02	234.4
1409.29	188.327
1409.56	162.757
1409.83	130.001
1410.1	102.366
1410.37	80.8752
1410.63	63.4647
1410.9	55.2816
1411.17	44.0244
1411.44	35.8546
1411.71	28.7181
1411.98	32.8562
1412.25	26.7572
1412.51	24.7693
1412.78	26.8916
1413.05	23.914
1413.32	16.8666
1413.59	14.9037
1413.86	16.9564
1414.12	15.892
1414.39	18.0077
1414.66	15.0253
1414.93	15.1057
1415.2	14.1247
1415.47	19.3099
1415.73	14.2267
1416	16.3315
1416.27	13.3063
1416.54	15.4152
1416.81	15.4713
1417.07	14.5002
1417.34	11.4756
1417.61	9.47714
1417.88	15.6977
1418.15	8.55743
1418.42	12.7179
1418.68	7.63111
1418.95	12.8211
1419.22	10.8151
1419.49	12.9205
1419.76	15.0173
1420.02	12.999
1420.29	9.95288
1420.56	14.0984
1420.83	8.99916
1421.1	14.1678
1421.36	10.0981
1421.63	13.22
1421.9	8.13916
1422.17	13.3356
1422.44	13.4045
1422.7	9.36351
1422.97	11.4986
1423.24	15.7133
1423.51	8.60993
1423.77	8.52049
1424.04	13.5733
1424.31	16.7135
1424.58	13.6239
1424.85	7.52392
1425.11	15.7853
1425.38	13.826
1425.65	10.8035
1425.92	7.76517
1426.19	13.9863
1426.45	17.1057
1426.72	14.0632
1426.99	1.78839
1427.26	14.1221
1427.52	10.0503
1427.79	10.0725
1428.06	10.0989
1428.33	-0.104008
1428.59	7.10534
1428.86	4.07978
1429.13	7.20028
1429.4	5.20196
1429.67	7.30181
1429.93	9.40404
1430.2	9.46123
1430.47	2.34781
1430.74	9.57858
1431	5.53949
1431.27	8.68494
1431.54	7.72258
1431.81	8.8031
1432.07	8.8475
1432.34	1.69814
1432.61	-0.321487
1432.87	7.9217
1433.14	7.94892
1433.41	0.795921
1433.68	10.0414
1433.95	6.98951
1434.21	4.97145
1434.48	3.98547
1434.75	7.12614
1435.01	5.13132
1435.28	3.12734
1435.55	5.21999
1435.82	3.21213
1436.08	5.30209
1436.35	7.39061
1436.62	1.28203
1436.89	1.32019
1437.15	2.3821
1437.42	5.49286
1437.69	6.55801
1437.95	6.59404
1438.22	8.68143
1438.49	4.6296
1438.76	-1.46688
1439.02	6.77428
1439.29	3.74426
1439.56	4.81281
1439.82	0.763275
1440.09	1.84033
1440.36	0.86969
1440.63	9.11938
1440.89	5.06218
1441.16	4.07825
1441.43	6.17273
1441.69	1.08203
1441.96	7.26646
1442.23	2.17611
1442.49	2.22617
1442.76	14.5731
1443.03	5.39434
1443.3	9.52979
1443.56	6.48422
1443.83	0.36504
1444.1	7.57578
1444.36	11.7136
1444.63	7.65612
1444.9	6.68522
1445.16	6.73712
1445.43	0.636604
1445.7	2.72378
1445.97	0.706203
1446.23	2.79249
1446.5	5.90436
1446.77	4.91325
1447.03	1.87092
1447.3	3.95641
1447.57	2.96436
1447.83	-0.0796089
1448.1	-0.0463333
1448.37	3.06664
1448.63	2.08762
1448.9	0.0845909
1449.17	3.20179
1449.43	5.28975
1449.7	2.24619
1449.97	-0.799221
1450.23	2.30635
1450.5	0.285202
1450.77	4.41825
1451.03	6.50121
1451.3	3.45897
1451.57	7.59051
1451.83	5.57213
1452.1	1.50513
1452.37	5.63587
1452.63	-1.50191
1452.9	2.63265
1453.17	-0.403088
1453.43	0.662533
1453.7	-1.34729
1453.97	0.738094
1454.23	0.770206
1454.5	-0.221848
1454.77	6.9864
1455.03	3.94731
1455.3	2.95604
1455.56	1.96297
1455.83	4.04786
1456.1	-7.18231
1456.36	1.05509
1456.63	2.1142
1456.9	5.21904
1457.16	1.14591
1457.43	-0.876503
1457.7	6.32553
1457.96	6.35597
1458.23	3.31438
1458.49	2.32373
1458.76	3.38261
1459.03	4.443
1459.29	-2.69306
1459.56	-1.63409
1459.82	0.448875
1460.09	0.479939
1460.36	2.55873
1460.62	-0.485332
1460.89	-3.52937
1461.16	1.6198
1461.42	-0.402122
1461.69	3.72033
1461.95	-4.44533
1462.22	-2.3727
1462.49	0.722008
1462.75	2.79132
1463.02	1.78989
1463.28	-2.28054
1463.55	-4.30436
1463.82	-0.19186
1464.08	-0.162346
1464.35	-3.18609
1464.61	3.00222
1464.88	6.12002
1465.15	2.07783
1465.41	1.05041
1465.68	-2.0636
1465.94	-5.12865
1466.21	2.0411
1466.48	1.06417
1466.74	1.08987
1467.01	-1.96052
1467.27	-3.97665
1467.54	1.15782
1467.8	0.164249
1468.07	3.25097
1468.34	-4.88241
1468.6	-5.87411
1468.87	1.29422
1469.13	-1.73944
1469.4	2.36473
1469.67	-2.71097
1469.93	-0.651001
1470.2	1.40615
1470.46	1.42608
1470.73	0.429184
1470.99	-5.6612
1471.26	-0.541893
1471.53	-7.6507
1471.79	-1.51872
1472.06	0.539959
1472.32	6.67408
1472.59	-2.46475
1472.85	-3.45686
1473.12	1.6601
1473.39	3.72004
1473.65	1.70426
1473.92	1.72448
1474.18	-2.32504
1474.45	1.76924
1474.71	3.83083
1474.98	2.84354
1475.24	-3.23415
1475.51	-5.24324
1475.78	-3.18283
1476.04	3.96348
1476.31	-6.19271
1476.57	1.96928
1476.84	0.973564
1477.1	-3.07682
1477.37	1.01041
1477.63	-2.01897
1477.9	1.05556
1478.16	-5.02221
1478.43	-5.00163
1478.69	3.14899
1478.96	1.13408
1479.22	-0.880424
1479.49	2.18555
1479.76	1.1856
1480.02	-4.89408
1480.29	-3.86222
1480.55	-2.8366
1480.82	-4.85376
1481.08	-1.79312
1481.35	1.27073
1481.61	2.30141
1481.88	-4.77306
1482.14	-2.71448
1482.41	-0.654453
1482.67	-2.65322
1482.94	1.43689
1483.2	0.444321
1483.47	-3.58943
1483.73	4.55943
1484	3.5666
1484.26	2.5719
1484.53	0.546474
1484.79	-2.49801
1485.06	1.5364
1485.32	-5.5836
1485.59	1.50198
1485.85	2.50168
1486.12	-2.44146
1486.38	-2.409
1486.65	1.68221
1486.91	-0.367077
1487.18	5.75431
1487.44	-0.297855
1487.71	-0.288887
1487.97	-5.34187
1488.24	0.750332
1488.5	2.78939
1488.77	-3.27377
1489.03	-2.25031
1489.3	-2.23718
1489.56	-0.197578
1489.83	-1.19267
1490.09	0.847961
1490.36	-1.15575
1490.62	5.94504
1490.89	1.91283
1491.15	2.93528
1491.42	-3.12062
1491.68	0.939358
1491.95	-0.0542183
1492.21	-0.0351906
1492.48	0.996708
1492.74	-2.01875
1493	-0.991093
1493.27	1.04819
1493.53	-6.00975
1493.8	-0.939339
1494.06	-0.922398
1494.33	6.17233
1494.59	-0.882698
1494.86	3.18274
1495.12	4.2099
1495.39	1.18829
1495.65	-2.84809
1495.92	-3.85405
1496.18	3.22208
1496.45	1.21227
1496.71	1.22389
1496.97	-0.782776
1497.24	3.26619
1497.5	1.26435
1497.77	-0.737556
1498.03	-2.74135
1498.3	1.31123
1498.56	4.35591
1498.82	0.336582
1499.09	1.36372
1499.35	0.372608
1499.62	0.391552
1499.88	-0.598232
1500.15	0.430813
1500.41	-0.561306
1500.68	0.463875
1500.94	-0.531242
1501.2	4.53074
1501.47	3.53217
1501.73	2.53004
1502	3.55198
1502.26	0.538597
1502.52	-3.48426
1502.79	3.5904
1503.05	2.5874
1503.32	3.60253
1503.58	1.59531
1503.85	2.61078
1504.11	-1.40794
1504.37	-4.41492
1504.64	3.66867
1504.9	3.68325
1505.17	-0.338089
1505.43	-0.328022
1505.7	-1.32814
1505.96	1.69855
1506.22	4.72027
1506.49	2.71609
1506.75	2.72847
1507.02	6.77378
1507.28	1.75583
1507.54	-1.25211
1507.81	-4.26019
1508.07	-0.216499
1508.34	2.81674
1508.6	0.812317
1508.86	0.826046
1509.13	-0.167339
1509.39	0.853668
1509.66	2.88103
1509.92	1.8858
1510.18	7.94925
1510.45	-0.0977707
1510.71	2.92988
1510.98	-4.11815
1511.24	0.9217
1511.5	5.95708
1511.77	2.93118
1512.03	2.92075
1512.29	3.91588
1512.56	-0.113781
1512.82	2.895
1513.08	-4.13482
1513.35	-0.115135
1513.61	0.892509
1513.88	-0.103443
1514.14	0.920956
1514.4	-3.07019
1514.67	-0.0420952
1514.93	1.97316
1515.2	-0.0338478
1515.46	1.97417
1515.72	-2.04044
1515.99	-0.0344315
1516.25	2.97351
1516.51	-4.04522
1516.78	1.97832
1517.04	-0.0202484
1517.3	-4.02333
1517.57	2.00148
1517.83	1.00945
1518.09	0.019516
1518.36	-0.966461
1518.62	-1.95772
1518.88	0.0606308
1519.15	-1.93369
1519.41	-0.91785
1519.67	1.10105
1519.94	0.109024
1520.2	-0.885998
1520.47	1.12603
1520.73	-0.874008
1520.99	0.140312
1521.26	4.16623
1521.52	0.165382
1521.78	-3.83816
1522.05	2.18929
1522.31	-4.82889
1522.57	3.20119
1522.84	-0.807705
1523.1	1.20251
1523.36	-2.80709
1523.62	-2.80984
1523.89	1.19228
1524.15	4.19514
1524.41	-0.814232
1524.68	0.188404
1524.94	2.19257
1525.2	6.21069
1525.47	1.2131
1525.73	-2.78395
1525.99	-4.77449
1526.26	3.254
1526.52	-0.735878
1526.78	9.30241
1527.05	3.29902
1527.31	2.30277
1527.57	-1.70504
1527.84	-3.70484
1528.1	-0.694717
1528.36	-4.6991
1528.63	-2.69267
1528.89	0.315434
1529.15	1.32017
1529.41	2.32627
1529.68	1.33035
1529.94	-2.67227
1530.2	1.33387
1530.47	1.33833
1530.73	-0.654781
1530.99	3.36578
1531.25	-2.63088
1531.52	-4.62343
1531.78	-2.61273
1532.04	-2.60931
1532.31	-2.60265
1532.57	-0.598026
1532.83	-4.59596
1533.09	-0.572224
1533.36	-0.553101
1533.62	6.4848
1533.88	0.478058
1534.15	0.486454
1534.41	6.51022
1534.67	-1.512
1534.94	-4.51892
1535.2	0.497013
1535.46	-7.52424
1535.72	-3.51478
1535.99	-0.521107
1536.25	-1.52987
1536.51	0.469681
1536.77	1.46203
1537.04	1.45161
1537.3	1.44287
1537.56	2.44215
1537.82	3.43719
1538.09	0.441185
1538.35	0.437374
1538.61	-0.570469
1538.87	1.42902
1539.14	2.42865
1539.4	0.444244
1539.66	5.47237
1539.92	-2.50041
1540.19	-0.475166
1540.45	-3.46137
1540.71	0.567505
1540.97	-1.42362
1541.24	0.589775
1541.5	0.577
1541.76	-3.43109
1542.02	4.57964
1542.29	1.56656
1542.55	2.56131
1542.81	2.55422
1543.07	-0.455704
1543.34	0.539711
1543.6	2.53445
1543.86	-2.47784
1544.12	0.51289
1544.39	-1.48268
1544.65	2.5229
1544.91	1.53385
1545.17	-2.45393
1545.43	-0.44165
1545.7	-2.4264
1545.96	1.58987
1546.22	-0.405689
1546.48	-1.40078
1546.74	4.60937
1547.01	0.606873
1547.27	-0.388279
1547.53	-5.39125
1547.79	-1.37737
1548.06	-2.38528
1548.32	-0.399437
1548.58	-3.40154
1548.84	0.607796
1549.1	-1.38216
1549.37	3.58912
1549.63	-0.451595
1549.89	-2.45736
1550.15	4.56502
1550.42	-1.39507
1550.68	0.667957
1550.94	3.72371
1551.2	0.752312
1551.46	4.74326
1551.73	1.7366
1551.99	-1.28191
1552.25	0.714851
1552.51	3.74577
1552.77	1.75537
1553.03	3.75992
1553.3	0.736736
1553.56	-2.30081
1553.82	2.71018
1554.08	-2.30772
1554.34	3.70307
1554.61	2.68926
1554.87	6.68527
1555.13	2.66239
1555.39	3.65964
1555.65	1.65407
1555.91	-0.348984
1556.18	2.65936
1556.44	4.6639
1556.7	1.65289
1556.96	-0.349483
1557.22	1.65685
1557.48	-0.344009
1557.75	4.66597
1558.01	1.65862
1558.27	-1.3532
1558.53	-2.36601
1558.79	0.628082
1559.06	-3.38776
1559.32	-2.39811
1559.58	-2.40775
1559.84	0.583992
1560.1	1.57675
1560.36	-2.42734
1560.63	2.56607
1560.89	1.5632
1561.15	-3.43608
1561.41	-0.438709
1561.67	-3.43451
1561.93	-2.42882
1562.19	3.57981
1562.46	-2.40889
1562.72	5.59222
1562.98	1.58918
1563.24	9.58562
1563.5	-2.41349
1563.76	0.582321
1564.02	-0.420578
1564.29	3.59327
1564.55	2.60827
1564.81	5.61499
1565.07	3.60976
1565.33	1.58492
1565.59	-0.483192
1565.85	-0.576328
1566.11	4.3486
1566.38	0.529076
1566.64	0.575191
1566.9	-2.44443
1567.16	-4.46708
1567.42	-0.441586
1567.68	-1.40938
1567.94	0.581528
1568.2	-0.446697
1568.47	5.55523
1568.73	-2.43895
1568.99	3.56213
1569.25	-4.44212
1569.51	4.5395
1569.77	1.531
1570.03	2.52924
1570.29	1.53173
1570.55	-4.46521
1570.82	2.52972
1571.08	0.528618
1571.34	1.5247
1571.6	1.5195
1571.86	-2.48482
1572.12	0.503948
1572.38	2.49886
1572.64	0.494442
1572.9	-2.51062
1573.17	-1.51919
1573.43	2.46701
1573.69	-5.52665
1573.95	-3.53714
1574.21	-0.544144
1574.47	-0.539116
1574.73	-5.52436
1574.99	3.46965
1575.25	-3.51403
1575.51	3.48656
1575.78	-4.50241
1576.04	-0.505249
1576.3	0.4893
1576.56	-4.50995
1576.82	-0.519176
1577.08	7.45771
1577.34	-2.54703
1577.6	1.43032
1577.86	1.41425
1578.12	1.39935
1578.38	1.38522
1578.64	-1.61543
1578.9	-0.622963
1579.17	3.36209
1579.43	-0.628231
1579.69	4.35445
1579.95	0.366642
1580.21	-1.62431
1580.47	1.36762
1580.73	-0.628448
1580.99	1.36192
1581.25	-2.63338
1581.51	0.349159
1581.77	0.341545
1582.03	-3.65514
1582.29	5.30218
1582.55	-0.68137
1582.81	-0.686584
1583.07	2.29632
1583.33	1.29528
1583.59	2.28753
1583.85	-0.704254
1584.11	0.285233
1584.38	1.27843
1584.64	-2.70483
1584.9	1.27923
1585.16	2.27428
1585.42	1.27505
1585.68	1.2701
1585.94	-0.725727
1586.2	0.263794
1586.46	4.23478
1586.72	-5.73325
1586.98	-1.76083
1587.24	1.2169
1587.5	1.2098
1587.76	-1.78138
1588.02	-1.78606
1588.28	-4.77344
1588.54	-4.77356
1588.8	2.19324
1589.06	5.18213
1589.32	-6.75998
1589.58	9.1693
1589.84	4.19283
1590.1	0.208851
1590.36	7.17519
1590.62	0.205925
1590.88	-2.77997
1591.14	1.20406
1591.4	1.1999
1591.66	-2.78692
1591.92	2.18669
1592.18	0.188
1592.44	-0.819241
1592.7	2.1512
1592.96	-3.83111
1593.22	4.11878
1593.48	-1.86658
1593.74	1.09776
1594	6.04628
1594.26	3.05151
1594.52	-0.930248
1594.78	0.0598869
1595.04	-2.9187
1595.3	1.05964
1595.56	2.05554
1595.82	1.05872
1596.08	1.03743
1596.34	-0.95303
1596.6	-2.9427
1596.86	4.00702
1597.12	2.01892
1597.38	1.02525
1597.64	-0.961262
1597.9	-0.961197
1598.16	-5.93272
1598.42	5.98151
1598.68	2.99067
1598.94	-1.98856
1599.2	-1.00809
1599.46	-2.0109
1599.72	3.93369
1599.98	6.89973
1600.24	2.92065
1600.5	3.90242
1600.76	-1.0674
1601.02	1.89429
1601.28	0.887272
1601.54	0.870831
1601.8	2.83561
1602.06	6.78188
1602.32	-0.160881
1602.58	-3.14104
1602.84	-0.183254
1603.1	-3.16397
1603.36	-0.207775
1603.62	-5.16298
1603.88	-0.226414
1604.14	0.755821
1604.4	-4.19197
1604.66	-0.239716
1604.92	-2.21937
1605.17	1.73285
1605.43	1.73048
1605.69	0.739899
1605.95	4.69552
1606.21	-4.20387
1606.47	3.71063
1606.73	-6.17985
1606.99	2.72475
1607.25	-2.19758
1607.51	-1.1874
1607.77	0.71344
1608.03	4.547
1608.29	-0.241737
1608.55	-0.192024
1608.81	-1.86027
1609.07	2.7384
1609.32	1.59005
1609.58	-0.365971
1609.84	4.12945
1610.1	2.74807
1610.36	1.59891
1610.62	0.423252
1610.88	2.32608
1611.14	2.88414
1611.4	1.56593
1611.66	-0.443867
1611.92	0.00165176
1612.18	1.98668
1612.44	-2.86139
1612.69	-4.25848
1612.95	2.0487
1613.21	-1.85799
1613.47	-1.05472
1613.73	-0.389767
1613.99	0.443001
1614.25	-1.327
1614.51	-1.61522
1614.77	-0.0977631
1615.03	-1.30505
1615.29	-1.33535
1615.54	-2.57222
1615.8	-2.55296
1616.06	0.592094
1616.32	-0.724995
1616.58	2.11451
1616.84	3.01216
1617.1	0.614384
1617.36	0.185921
1617.62	0.764645
1617.88	-1.06217
1618.13	-0.0418358
1618.39	-1.38619
1618.65	0.0558777
1618.91	1.85144
1619.17	2.07924
1619.43	0.312469
1619.69	-3.70462
1619.95	1.4976
1620.2	-0.567757
1620.46	-2.25134
1620.72	3.30129
1620.98	0.887447
1621.24	-2.11455
1621.5	0.418221
1621.76	-1.93544
1622.02	-0.840195
1622.27	1.1444
1622.53	2.39605
1622.79	1.28873
1623.05	0.204144
1623.31	2.01756
1623.57	0.22311
1623.83	0.749615
1624.09	0.363503
1624.34	0.454212
1624.6	1.15572
1624.86	-0.729954
1625.12	0.153812
1625.38	-0.124565
1625.64	2.51306
1625.9	1.63433
1626.15	-0.79636
1626.41	-1.53452
1626.67	2.76217
1626.93	4.37383
1627.19	2.02267
1627.45	0.284595
1627.7	-1.21678
1627.96	-1.63338
1628.22	-1.28909
1628.48	0.435505
1628.74	-0.327133
1629	-0.672451
1629.26	0.058918
1629.51	0.610397
1629.77	4.08016
1630.03	-0.189869
1630.29	-3.35134
1630.55	2.37887
1630.81	3.22557
1631.06	-0.688263
1631.32	0.541447
1631.53	-3.32981
1631.79	-2.34209
1632.05	3.57399
1632.31	-0.363564
1632.57	3.57381
1632.84	-0.360275
1633.1	1.62873
1633.36	3.58376
1633.62	-0.381828
1633.88	1.58201
1634.14	4.54138
1634.4	2.57447
1634.66	-2.35423
1634.93	3.55839
1635.19	-1.37309
1635.45	-2.36262
1635.71	5.51754
1635.97	2.55502
1636.23	-0.407776
1636.49	1.55582
1636.75	0.563354
1637.02	-0.429279
1637.28	0.54723
1637.54	-0.446808
1637.8	1.51664
1638.06	4.46678
1638.32	2.49165
1638.58	-2.43681
1638.84	-3.42607
1639.1	3.46253
1639.37	-0.476948
1639.63	-1.46386
1639.89	2.4711
1640.15	-0.48468
1640.41	1.48043
1640.67	2.46387
1640.93	2.46949
1641.19	2.47293
1641.46	0.503071
1641.72	-1.47094
1641.98	-0.492401
1642.24	0.487427
1642.5	-2.46987
1642.76	1.46416
1643.02	0.476131
1643.28	2.4415
1643.54	0.470058
1643.8	-2.48565
1644.06	2.43053
1644.33	5.3765
1644.59	1.43213
1644.85	-3.49395
1645.11	-6.44822
1645.37	2.40716
1645.63	2.41082
1645.89	-1.52412
1646.15	0.442844
1646.41	0.437313
1646.67	-3.50451
1646.93	1.40907
1647.19	-0.562584
1647.46	1.39917
1647.72	-3.52433
1647.98	4.33835
1648.24	1.38567
1648.5	1.38566
1648.76	-1.55984
1649.02	-0.570435
1649.28	0.431244
1649.54	-3.50073
1649.8	2.40061
1650.06	0.426014
1650.32	6.33027
1650.58	0.434422
1650.85	4.38183
1651.11	2.41831
1651.37	-1.51618
1651.63	-0.527351
1651.89	0.458923
1652.15	0.457882
1652.41	0.456749
1652.67	1.44262
1652.93	3.4083
1653.19	2.41681
1653.45	-3.49796
1653.71	0.442013
1653.97	-2.51318
1654.23	2.4163
1654.49	0.446957
1654.75	1.43301
1655.01	-0.536442
1655.27	-3.4898
1655.53	-1.512
1655.8	1.45635
1656.06	-2.47671
1656.32	-1.48222
1656.57	0.496609
1656.84	2.47336
1657.1	5.43582
1657.36	2.47249
1657.62	0.494106
1657.88	-1.48476
1658.14	1.47265
1658.4	2.45574
1658.66	-0.509392
1658.92	-6.43465
1659.18	3.42403
1659.44	0.45842
1659.7	2.42434
1659.96	0.445759
1660.22	-3.50621
1660.48	-1.53226
1660.74	-2.51408
1661	1.43543
1661.26	2.42833
1661.52	-1.51054
1661.78	1.4567
1662.04	-3.47438
1662.3	1.46228
1662.56	-0.546127
1662.82	0.512356
1663.08	0.552238
1663.34	0.530632
1663.6	-1.45058
1663.86	2.49186
1664.12	-5.47957
1664.38	-0.510426
1664.64	1.47313
1664.9	2.4638
1665.16	-0.479633
1665.42	-0.472183
1665.68	-4.46082
1665.94	-0.548054
1666.2	-1.44017
1666.46	-2.42118
1666.72	-2.42497
1666.98	-1.48743
1667.24	-2.58521
1667.5	0.480961
1667.76	3.43357
1668.02	-2.49415
1668.28	4.40929
1668.54	-0.530468
1668.8	3.41689
1669.06	-1.49936
1669.32	-0.490837
1669.58	0.501202
1669.84	-3.4487
1670.1	2.47955
1670.36	-1.47512
1670.62	1.48825
1670.88	5.46197
1671.14	-2.43152
1671.4	-1.44635
1671.66	-0.460461
1671.92	1.51498
1672.18	-0.459637
1672.44	0.53257
1672.69	-1.44269
1672.95	-1.44238
1673.21	-0.453529
1673.47	2.5137
1673.73	0.538837
1673.99	-0.446602
1674.25	3.51305
1674.51	-3.40303
1674.77	-2.40907
1675.03	-1.41462
1675.29	2.5505
1675.55	-4.36921
1675.81	-1.39666
1676.07	-1.39539
1676.33	3.55291
1676.59	2.56551
1676.85	-4.35955
1677.11	-4.35778
1677.37	-2.37797
1677.63	-0.399742
1677.89	1.57693
1678.14	-2.38559
1678.4	0.576244
1678.66	3.53597
1678.92	-0.426064
1679.18	-4.38522
1679.44	3.52063
1679.7	0.552578
1679.96	-1.42717
1680.22	-5.38318
1680.48	-0.443241
1680.74	0.542183
1681	-4.4009
1681.26	-0.450813
1681.52	0.536484
1681.78	1.52491
1682.03	0.53788
1682.29	1.527
1682.55	0.540703
1682.81	0.542835
1683.07	1.53045
1683.33	-4.39664
1683.59	2.5194
1683.85	-0.442898
1684.11	-2.41824
1684.37	-6.37024
1684.63	-3.41074
1684.89	-1.4371
1685.14	1.525
1685.4	0.537712
1685.66	3.50086
1685.92	-2.42252
1686.18	0.541695
1686.44	-2.41831
1686.7	3.51165
1686.96	1.5462
1687.22	-3.38751
1687.48	0.566563
1687.73	-3.38603
1687.99	0.562538
1688.25	1.54746
1688.51	-0.42955
1688.77	3.51778
1689.03	-1.42285
1689.29	-1.42882
1689.55	1.52749
1689.81	-2.42448
1690.06	-0.45652
1690.32	1.50956
1690.58	0.522705
1690.84	2.50647
1691.1	0.540462
1691.36	-2.41422
1691.62	3.51012
1691.88	0.555969
1692.13	1.54837
1692.39	3.52441
1692.65	-0.423431
1692.91	-2.40036
1693.17	-5.36475
1693.43	0.548073
1693.69	0.539837
1693.95	0.530491
1694.2	-1.44624
1694.46	-0.465786
1694.72	0.513794
1694.98	3.46552
1695.24	3.46717
1695.5	-1.45353
1695.76	-0.464077
1696.01	-1.44478
1696.27	-3.41049
1696.53	5.46534
1696.79	-0.441261
1697.05	0.546329
1697.31	5.47219
1697.57	-5.37096
1697.82	-1.43692
1698.08	3.4795
1698.34	-5.3873
1698.6	0.515583
1698.86	0.511787
1699.12	3.46121
1699.38	-3.42701
1699.63	0.510456
1699.89	-0.468838
1700.15	-7.35399
1700.41	-3.41476
1700.67	-3.41843
1700.92	0.517929
1701.18	-4.39993
1701.44	2.48681
1701.7	-0.464916
1701.96	3.46558
1702.22	-2.43948
1702.47	-0.47686
1702.73	2.4672
1702.99	-0.485512
1703.25	0.497787
1703.51	-1.46569
1703.77	-2.44778
1704.02	-1.46584
1704.28	-1.46513
1704.54	-0.476421
1704.8	2.4794
1705.06	0.518257
1705.32	-0.463257
1705.57	-3.41036
1705.83	0.522892
1706.09	-2.42182
1706.35	-3.40673
1706.61	-3.41101
1706.86	1.49386
1707.12	3.45055
1707.38	0.498981
1707.64	-1.4687
1707.9	-0.494289
1708.16	0.477753
1708.41	0.4688
1708.67	3.40007
1708.93	4.36796
1709.19	1.41934
1709.44	-3.48221
1709.7	2.39003
1709.96	-0.54641
1710.22	2.39304
1710.48	-1.51873
1710.73	-0.535339
1710.99	1.42918
1711.25	2.41755
1711.51	-0.513283
1711.77	-0.506653
1712.02	4.39691
1712.28	0.482925
1712.54	-4.41484
1712.8	-4.42073
1713.06	1.44132
1713.31	4.36281
1713.57	0.437923
1713.83	0.427631
1714.09	0.416779
1714.34	1.39025
1714.6	1.38881
1714.86	-0.564838
1715.12	3.34341
1715.38	1.39285
1715.63	2.37994
1715.89	3.36939
1716.15	-6.39813
1716.41	-0.535107
1716.66	4.34746
1716.92	-6.40101
1717.18	3.35757
1717.44	4.32287
1717.69	-2.52045
1717.95	4.29174
1718.21	1.35306
1718.47	3.29052
1718.72	4.25475
1718.98	0.354115
1719.24	-2.56785
1719.5	1.32975
1719.75	0.359463
1720.01	1.33465
1720.27	-1.57969
1720.53	7.18884
1720.78	6.21465
1721.04	3.29032
1721.3	-3.52901
1721.56	1.33237
1721.81	1.32845
1722.07	6.1861
1722.33	2.29
1722.59	-2.57652
1722.84	4.22103
1723.1	4.21504
1723.36	4.21006
1723.62	-0.649044
1723.87	1.29275
1724.13	-0.645809
1724.39	-0.644955
1724.64	3.24081
1724.9	-0.644833
1725.16	0.320011
1725.42	3.21957
1725.67	-3.57929
1725.93	2.22839
1726.19	2.22271
1726.45	0.283901
1726.7	2.229
1726.96	4.16817
1727.22	3.19718
1727.47	-0.687389
1727.73	6.09555
1727.99	4.17257
1728.24	2.23663
1728.5	-0.671528
1728.76	1.25512
1729.02	6.04007
1729.27	-1.74528
1729.53	3.06267
1729.79	0.194004
1730.05	6.97871
1730.3	-0.729557
1730.56	4.08051
1730.82	4.07344
1731.07	-1.71798
1731.33	-2.63991
1731.59	-4.56618
1731.84	3.17041
1732.1	-0.692001
1732.36	3.17567
1732.61	0.277126
1732.87	4.14212
1733.13	6.07224
1733.39	0.272282
1733.64	2.19627
1733.9	0.254627
1734.16	3.13755
1734.41	3.12958
1734.67	4.08545
1734.93	3.11263
1735.18	4.06738
1735.44	5.02182
1735.7	6.94016
1735.95	5.9726
1736.21	1.15736
1736.47	6.93326
1736.72	0.196251
1736.98	-1.72886
1737.24	5.00582
1737.49	-3.65404
1737.75	1.15529
1738.01	3.07838
1738.26	3.07578
1738.52	4.99447
1738.78	-1.73826
1739.03	4.02466
1739.29	3.05852
1739.55	0.169933
1739.8	5.92106
1740.06	1.10776
1740.32	3.01445
1740.57	1.08595
1740.83	4.91281
1741.09	4.90701
1741.34	-1.80493
1741.6	4.89727
1741.86	2.97775
1742.11	2.97565
1742.37	4.8909
1742.63	4.893
1742.88	2.97948
1743.14	3.93711
1743.4	4.89628
1743.65	4.89969
1743.91	4.90009
1744.16	-0.845192
1744.42	9.67688
1744.68	2.97852
1744.93	3.93675
1745.19	-2.75425
1745.45	1.07698
1745.7	2.9946
1745.96	5.86652
1746.22	4.90937
1746.47	0.12476
1746.73	0.119713
1746.98	2.02439
1747.24	3.93073
1747.5	7.74413
1747.75	-0.855694
1748.01	3.91384
1748.27	1.05005
1748.52	0.0992241
1748.78	5.83175
1749.03	5.83812
1749.29	3.93636
1749.55	1.08135
1749.8	3.00211
1750.06	3.96976
1750.32	3.98379
1750.57	-1.73552
1750.83	6.87884
1751.08	2.1077
1751.34	4.98484
1751.6	5.94674
1751.85	4.98997
1752.11	-1.70676
1752.36	4.01915
1752.62	6.87971
1752.88	4.96516
1753.13	1.14154
1753.39	5.91008
1753.64	4.9523
1753.9	1.13327
1754.15	2.08576
1754.41	1.12801
1754.67	3.03134
1754.92	1.12299
1755.18	2.07561
1755.43	2.07578
1755.69	5.88772
1755.95	8.74386
1756.2	4.92801
1756.46	2.06503
1756.71	9.67683
1756.97	3.00317
1757.23	2.99503
1757.48	3.93941
1757.74	4.89029
1757.99	2.03657
1758.25	2.99482
1758.5	6.81704
1758.76	-1.73791
1759.02	6.83153
1759.27	6.83672
1759.53	7.79356
1759.78	2.09077
1760.04	7.80448
1760.3	5.9027
1760.55	3.04927
1760.81	5.90424
1761.06	4.0014
1761.32	2.09722
1761.57	4.9468
1761.83	1.14097
1762.08	2.09155
1762.34	4.94492
1762.6	6.84897
1762.85	6.86105
1763.11	5.91976
1763.36	5.92532
1763.62	7.82969
1763.87	1.17996
1764.13	7.84365
1764.38	2.14692
1764.64	5.01324
1764.89	4.08193
1765.15	6.94818
1765.4	7.91047
1765.66	0.303696
1765.92	6.97497
1766.17	6.98116
1766.43	6.9859
1766.68	6.98905
1766.94	10.798
1767.19	8.8955
1767.45	3.18803
1767.7	1.28566
1767.96	4.14003
1768.21	3.18682
1768.47	6.99247
1768.73	0.333786
1768.98	7.94588
1769.24	4.12843
1769.49	7.91177
1769.75	8.84312
1770	6.93287
1770.26	12.6361
1770.51	6.9535
1770.77	10.7692
1771.02	6.97428
1771.28	7.93209
1771.53	7.94863
1771.79	8.92
1772.04	16.5374
1772.3	-0.572025
1772.55	7.04724
1772.81	6.10936
1773.06	7.0719
1773.32	4.227
1773.57	14.7049
1773.83	8.05217
1774.08	8.06087
1774.34	9.97282
1774.59	9.97999
1774.85	9.03456
1775.1	6.18877
1775.36	9.05347
1775.61	10.0186
1775.87	6.23255
1776.12	12.9203
1776.38	11.9778
1776.63	8.17073
1776.89	7.21969
1777.14	8.17168
1777.4	9.12128
1777.65	9.12067
1777.91	5.30581
1778.16	7.20778
1778.42	11.0136
1778.67	-0.417534
1778.93	2.43514
1779.18	2.4291
1779.44	2.42246
1779.69	3.37165
1779.95	3.37523
1780.2	6.24587
1780.46	5.30148
1780.71	7.21232
1780.97	8.17228
1781.22	8.18102
1781.47	7.23418
1781.73	7.2403
1781.98	4.39204
1782.24	6.30642
1782.49	10.1272
1782.75	-3.19482
1783	4.43691
1783.26	6.35175
1783.51	3.5015
1783.77	9.22985
1784.02	4.47346
1784.28	12.1111
1784.53	2.58783
1784.79	8.32515
1785.04	6.42818
1785.29	5.48172
1785.55	2.62339
1785.8	8.34979
1786.06	3.57926
1786.31	6.44064
1786.57	1.67586
1786.82	2.63708
1787.08	3.60153
1787.33	3.61407
1787.58	6.49299
1787.84	9.37819
1788.09	2.72071
1788.35	6.57468
1788.6	4.69237
1788.86	0.884789
1789.11	5.68221
1789.37	4.73839
1789.62	2.84173
1789.87	4.77209
1790.13	-0.969139
1790.38	4.7905
1790.64	4.79978
1790.89	-1.90676
1791.15	4.80588
1791.4	2.88351
1791.65	1.90537
1791.91	6.69458
1792.16	2.86342
1792.42	3.82532
1792.67	2.873
1792.93	3.83663
1793.18	1.9297
1793.43	6.72662
1793.69	3.85732
1793.94	0.0292015
1794.2	1.95399
1794.45	6.75023
1794.7	1.0038
1794.96	6.75005
1795.21	4.8492
1795.47	4.88485
1795.72	3.95012
1795.97	3.00437
1796.23	-0.825912
1796.48	3.98512
1796.74	0.154743
1796.99	4.00784
1797.25	1.13712
1797.5	-0.774349
1797.75	-0.765186
1798.01	2.12681
1798.26	4.05735
1798.51	0.218548
1798.77	5.99348
1799.02	1.18935
1799.28	0.229088
1799.53	3.11269
1799.78	1.18729
1800.04	0.222141
1800.29	1.1797
1800.55	2.13833
1800.8	5.01903
1801.05	2.13682
1801.31	1.17718
1801.56	-0.741821
1801.81	0.221844
1802.07	0.226315
1802.32	1.19255
1802.58	3.12074
1802.83	2.16824
1803.08	0.255775
1803.34	0.266129
1803.59	3.16136
1803.84	1.24817
1804.1	2.21635
1804.35	4.145
1804.61	3.19135
1804.86	6.08799
1805.11	3.21211
1805.37	-0.625988
1805.62	2.27403
1805.87	0.360477
1806.13	-0.591904
1806.38	4.23415
1806.64	6.17051
1806.89	-2.49371
1807.14	1.36708
1807.4	-0.556358
1807.65	5.22961
1807.9	1.37735
1808.16	-0.547054
1808.41	-0.543671
1808.66	-4.39553
1808.92	5.24721
1809.17	0.431755
1809.42	3.32786
1809.68	3.33193
1809.93	1.40818
1810.18	1.4124
1810.44	3.34464
1810.69	-0.508995
1810.94	2.38422
1811.2	0.456715
1811.45	0.458733
1811.7	5.28074
1811.96	3.35463
1812.21	-0.498661
1812.46	1.43378
1812.72	0.476128
1812.97	3.37683
1813.22	0.492714
1813.48	0.500435
1813.73	-0.45969
1813.98	0.512634
1814.24	1.48829
1814.49	-2.36079
1814.74	2.47925
1815	-1.36961
1815.25	2.50413
1815.5	5.4115
1815.76	6.38372
1816.01	1.55585
1816.26	2.52637
1816.52	-0.36911
1816.77	-0.364506
1817.02	-0.359779
1817.27	5.44034
1817.53	1.57034
1817.78	5.41923
1818.03	0.578598
1818.29	-2.31499
1818.54	4.45504
1818.79	-0.36322
1819.05	1.57727
1819.3	2.54373
1819.55	-0.350796
1819.8	3.52172
1820.06	2.56171
1820.31	0.633598
1820.56	2.57361
1820.82	0.646687
1821.07	-0.314552
1821.32	6.46139
1821.58	2.59954
1821.83	3.57508
1822.08	1.64723
1822.33	5.52465
1822.59	1.65867
1822.84	3.59895
1823.09	1.66685
1823.34	3.60658
1823.6	1.67138
1823.85	3.60582
1824.1	1.66769
1824.36	2.63619
1824.61	3.60885
1824.86	0.709843
1825.11	3.619
1825.37	3.62451
1825.62	6.53537
1825.87	1.69793
1826.12	-1.20516
1826.38	-1.20386
1826.63	1.70365
1826.88	6.54863
1827.14	1.70846
1827.39	4.61802
1827.64	2.68591
1827.89	3.66038
1828.15	-4.08553
1828.4	4.63615
1828.65	0.760307
1828.9	0.757996
1829.16	-0.214611
1829.41	0.75182
1829.66	1.72016
1829.91	0.751404
1830.17	1.71889
1830.42	0.747303
1830.67	2.68071
1830.92	0.74152
1831.18	-0.225376
1831.43	3.65262
1831.68	2.69068
1831.93	1.72856
1832.19	-6.01476
1832.44	2.70893
1832.69	3.68428
1832.94	0.785919
1833.2	6.60763
1833.45	-0.175514
1833.7	4.67271
1833.95	0.799805
1834.2	-0.167049
1834.46	3.71428
1834.71	1.76637
1834.96	0.778606
1835.21	4.6344
1835.47	5.58431
1835.72	-0.232487
1835.97	3.62762
1836.22	1.69324
1836.48	1.68526
1836.73	-1.07492
1836.98	4.74662
1837.23	-3.06393
1837.48	2.73577
1837.74	3.67739
1837.99	3.65332
1838.24	0.713287
1838.49	0.691425
1838.74	-0.278774
1839	3.65234
1839.25	4.64996
1839.5	3.69666
1839.75	3.70273
1840	2.73941
1840.26	4.68813
1840.51	4.65128
1840.76	1.72001
1841.01	3.63243
1841.27	1.67935
1841.52	4.56072
1841.77	4.54296
1842.02	-2.23118
1842.27	2.58221
1842.53	0.639847
1842.78	3.52127
1843.03	0.634476
1843.28	-0.33353
1843.53	-3.2233
1843.78	7.38714
1844.04	1.59949
1844.29	-1.29802
1844.54	-0.333687
1844.79	2.56469
1845.04	0.636131
1845.3	-0.334454
1845.55	-0.333122
1845.8	-0.332893
1846.05	2.5766
1846.3	4.52414
1846.55	-1.25479
1846.81	0.702354
1847.06	4.5456
1847.31	2.55843
1847.56	-3.28387
1847.81	0.555519
1848.07	0.556011
1848.32	1.53722
1848.57	-0.372799
1848.82	1.53485
1849.07	-4.2523
1849.32	0.562534
1849.57	1.51768
1849.83	-1.38056
1850.08	1.49448
1850.33	2.44485
1850.58	-0.454243
1850.83	0.496017
1851.09	-3.35755
1851.34	-5.28645
1851.59	1.43084
1851.84	2.38522
1852.09	1.42048
1852.34	-3.38305
1852.59	-0.503288
1852.84	1.41664
1853.1	2.37612
1853.35	-2.42669
1853.6	3.33139
1853.85	1.4063
1854.1	1.39829
1854.35	2.34678
1854.6	-2.46279
1854.86	-0.55505
1855.11	0.397499
1855.36	3.26732
1855.61	-3.45395
1855.86	1.32518
1856.11	3.23323
1856.36	-3.4762
1856.61	-2.52101
1856.87	-1.56413
1857.12	-0.607494
1857.37	4.17882
1857.62	0.343552
1857.87	-3.49204
1858.12	0.33279
1858.37	1.28341
1858.63	1.27485
1858.88	-3.5192
1859.13	0.298916
1859.38	1.24542
1859.63	-3.54623
1859.88	0.271072
1860.13	3.13707
1860.38	-1.64406
1860.63	1.22511
1860.89	1.23087
1861.14	1.2361
1861.39	-4.49922
1861.64	1.24601
1861.89	0.293697
1862.14	-0.66267
1862.39	2.20498
1862.64	-4.49965
1862.9	-5.46435
1863.15	-0.691147
1863.4	-0.700935
1863.65	-0.710464
1863.9	-0.71949
1864.15	-2.63886
1864.4	2.13032
1864.65	1.16694
1864.9	2.11382
1865.15	1.14956
1865.4	0.183964
1865.66	6.85162
1865.91	3.01988
1866.16	1.09618
1866.41	-5.5934
1866.66	-4.65523
1866.91	-1.81277
1867.16	2.9313
1867.41	1.01046
1867.66	-0.907703
1867.91	-3.77267
1868.16	-1.87842
1868.41	-1.88404
1868.67	-1.8882
1868.92	0.0118637
1869.17	-0.938778
1869.42	-1.89164
1869.67	0.00601959
1869.92	0.00186539
1870.17	1.89899
1870.42	-0.00587463
1870.67	1.8913
1870.92	0.937401
1871.17	0.934517
1871.42	1.88235
1871.67	-1.92365
1871.92	2.82152
1872.17	-0.0373001
1872.42	1.8562
1872.68	0.900505
1872.93	1.84132
1873.18	2.78096
1873.43	2.77357
1873.68	1.82037
1873.93	-1.98175
1874.18	-0.0905037
1874.43	-2.94623
1874.68	-0.109657
1874.93	-1.06927
1875.18	1.76425
1875.43	-0.144302
1875.68	-1.10434
1875.93	0.775673
1876.18	2.64673
1876.43	0.737183
1876.68	-4.95363
1876.93	1.65838
1877.18	-0.241043
1877.43	0.684109
1877.68	2.54913
1877.93	-0.328388
1878.18	-1.24632
1878.44	-2.07066
1878.69	-1.17371
1878.93	-4.03037
1879.19	2.58558
1879.44	2.61966
1879.69	3.58238
1879.94	3.56781
1880.19	-3.07476
1880.44	-1.18537
1880.69	-1.19031
1880.94	-2.13205
1881.19	1.64474
1881.44	0.693527
1881.69	0.675632
1881.94	-2.18271
1882.19	-0.3116
1882.44	0.611427
1882.69	-0.356773
1882.94	1.50296
1883.19	-0.397224
1883.44	-0.425938
1883.69	0.756088
1883.94	-1.29546
1884.19	2.3807
1884.44	-1.38893
1884.69	-0.428169
1884.94	0.492558
1885.19	-4.21097
1885.44	-1.36731
1885.69	0.52177
1885.94	-2.30732
1886.19	-2.29368
1886.44	-1.34435
1886.69	-1.34185
1886.94	-1.34829
1887.19	5.24209
1887.44	-0.432812
1887.69	0.499462
1887.94	-4.22916
1888.19	1.41818
1888.44	4.23298
1888.69	4.21409
1888.94	0.428501
1889.19	-1.46983
1889.44	3.22401
1889.69	0.390171
1889.94	2.26845
1890.19	3.20481
1890.44	-1.50161
1890.69	2.26956
1890.94	-0.550198
1891.19	3.21671
1891.43	-1.49728
1891.68	-2.44543
1891.94	0.376019
1892.18	-0.571323
1892.43	-2.45978
1892.68	5.06878
1892.93	-0.58939
1893.18	3.16518
1893.43	5.02974
1893.68	-1.57957
1893.93	-0.659786
1894.18	2.15216
1894.43	6.85519
1894.68	4.9568
1894.93	-1.63051
1895.18	-0.697113
1895.43	-0.699474
1895.68	-5.39795
1895.93	2.119
1896.18	0.240597
1896.43	0.241928
1896.68	4.00464
1896.93	0.248116
1897.18	-2.57027
1897.42	-2.56934
1897.68	2.13346
1897.92	1.19109
1898.17	1.18744
1898.42	2.12226
1898.67	1.17376
1898.92	2.10407
1899.17	-1.6687
1899.42	-2.62098
1899.67	2.06759
1899.92	2.05997
1900.17	2.99097
1900.42	-1.71448
1900.67	0.159428
1900.92	2.97513
1901.16	1.09657
1901.41	0.159523
1901.66	-4.5357
1901.91	-1.71309
1902.16	1.11097
1902.41	2.05662
1902.66	2.06123
1902.91	2.99871
1903.16	2.05109
1903.41	-0.778084
1903.66	-1.72644
1903.91	7.66991
1904.16	2.96207
1904.41	2.95649
1904.65	1.07117
1904.9	5.76688
1905.15	1.06032
1905.4	1.05505
1905.65	1.99079
1905.9	3.86485
1906.15	0.0907707
1906.4	2.89272
1906.65	-2.75228
1906.9	4.75342
1907.14	7.56272
1907.39	0.0434914
1907.64	2.85717
1907.89	2.85564
1908.14	1.91769
1908.39	3.79987
1908.64	1.92038
1908.89	1.9187
1909.14	-0.900108
1909.39	3.80066
1909.63	0.984905
1909.88	0.990463
1910.13	5.70041
1910.38	2.88789
1910.63	5.72126
1910.88	4.7889
1911.13	-0.855858
1911.38	-0.854218
1911.62	0.087307
1911.87	2.9108
1912.12	-1.80337
1912.37	0.0741234
1912.62	4.77694
1912.87	0.062851
1913.12	2.88432
1913.37	0.0549049
1913.61	1.93599
1913.86	2.87988
1914.11	0.0602455
1914.36	1.95301
1914.61	0.0722618
1914.86	2.90494
1915.11	1.96624
1915.36	1.96978
1915.6	1.97126
1915.85	-2.74869
1916.1	-1.80994
1916.35	1.01378
1916.6	3.8382
1916.85	0.998287
1917.1	-0.900078
1917.34	3.80462
1917.59	-3.74831
1917.84	1.90088
1918.09	3.77988
1918.34	0.948608
1918.59	0.949753
1918.83	4.72636
1919.08	0.959919
1919.33	-4.69482
1919.58	3.80688
1919.83	4.76393
1920.08	0.995682
1920.33	0.053833
1920.57	2.88616
1920.82	0.987823
1921.07	-0.903553
1921.32	-1.84371
1921.57	2.88825
1921.81	1.94464
1922.06	-4.67387
1922.31	4.78248
1922.56	2.88686
1922.81	-0.903194
1923.06	1.92385
1923.31	-4.70383
1923.55	1.90627
1923.8	1.899
1924.05	2.83641
1924.3	-0.953526
1924.55	-1.90895
1924.79	-0.0278473
1925.04	-0.978214
1925.29	4.68769
1925.54	1.85419
1925.79	1.85814
1926.04	-0.970493
1926.28	0.926548
1926.53	3.76982
1926.78	-2.84653
1927.03	-3.7866
1927.28	0.949467
1927.52	0.00416183
1927.77	2.84603
1928.02	-0.941559
1928.27	-2.83607
1928.52	1.90001
1928.76	2.84594
1929.01	0.951874
1929.26	0.952557
1929.51	0.00658798
1929.76	-2.83358
1930	0.017704
1930.25	-0.925697
1930.5	1.92756
1930.75	-1.86365
1931	0.989544
1931.24	0.0387802
1931.49	0.035614
1931.74	0.977993
1931.99	2.86744
1932.24	0.0104713
1932.48	0.950127
1932.73	4.73628
1932.98	0.930672
1933.23	0.924774
1933.47	-1.93023
1933.72	-1.93227
1933.97	-0.977531
1934.22	0.934464
1934.46	0.00482559
1934.71	0.984035
1934.96	1.96373
1935.21	-0.868912
1935.46	1.05486
1935.7	1.06924
1935.95	-0.82983
1936.2	-1.81094
1936.45	1.04056
1936.69	0.0809631
1936.94	1.97789
1937.19	-6.60858
1937.44	-5.66768
1937.68	2.89218
1937.93	5.73592
1938.18	1.91636
1938.43	2.85598
1938.68	-1.90708
1938.92	1.90905
1939.17	2.86168
1939.42	-1.89796
1939.67	-2.84877
1939.91	-1.89591
1940.16	-1.89432
1940.41	3.81986
1940.66	3.82561
1940.9	5.73801
1941.15	-8.54683
1941.4	-4.72297
1941.64	-4.72713
1941.89	4.80636
1942.14	-1.88946
1942.39	-0.00799942
1942.63	-1.90595
1942.88	-1.8743
1943.13	-0.915344
1943.38	0.991768
1943.62	0.972382
1943.87	-1.91094
1944.12	-1.92709
1944.37	-2.86337
1944.61	-1.90555
1944.86	0.00721359
1945.11	2.87662
1945.35	0.0167046
1945.6	-0.933712
1945.85	-3.79608
1946.1	-4.74875
1946.34	-5.70289
1946.59	4.81667
1946.84	0.0354614
1947.09	1.94655
1947.33	1.94172
1947.58	-0.93465
1947.83	0.0138588
1948.07	-1.90349
1948.32	-0.951561
1948.57	-1.91209
1948.82	0.949535
1949.06	0.947414
1949.31	2.86303
1949.56	0.953979
1949.8	-4.78258
1950.05	1.92075
1950.3	-0.944794
1950.54	3.8549
1950.79	0.0371704
1951.04	0.0463982
1951.29	2.9335
1951.53	-3.76877
1951.78	-1.84075
1952.03	-2.79389
1952.27	-0.870758
1952.52	4.89249
1952.77	-1.82763
1953.01	0.0879478
1953.26	2.9726
1953.51	-5.66854
1953.76	-0.878281
1954	1.98482
1954.25	0.0367317
1954.49	-3.82403
1954.74	1.90589
1954.99	-1.94816
1955.24	0.916962
1955.48	1.86978
1955.73	4.74487
1955.98	1.87744
1956.22	-0.026989
1956.47	-3.84233
1956.72	-3.8367
1956.96	0.97049
1957.21	3.85399
1957.46	0.0181999
1957.7	-0.938313
1957.95	2.90817
1958.2	0.988316
1958.44	2.9107
1958.69	0.987637
1958.94	0.0247688
1959.18	0.979218
1959.43	0.00727081
1959.68	-1.92176
1959.92	-0.00508499
1960.17	-0.975086
1960.42	-0.0238914
1960.66	3.80843
1960.91	2.83771
1961.16	4.74669
1961.4	1.85606
1961.65	-1.03267
1961.9	-1.03989
1962.14	1.8368
1962.39	2.79527
1962.63	1.83354
1962.88	-1.04771
1963.13	-2.00953
1963.37	4.70778
1963.62	1.82599
1963.87	2.78394
1964.11	-1.05767
1964.36	0.863689
1964.61	-0.095829
1964.85	1.82063
1965.1	-0.106186
1965.35	-0.108829
1965.59	0.846596
1965.84	0.844032
1966.08	-1.07611
1966.33	5.651
1966.58	-0.106972
1966.82	3.74174
1967.07	1.82268
1967.32	-1.05926
1967.56	2.78112
1967.81	1.817
1968.05	3.7398
1968.3	0.854176
1968.55	2.77542
1968.79	3.73278
1969.04	3.72582
1969.29	8.521
1969.53	6.58478
1969.78	1.76485
1970.02	0.789005
1970.27	-0.184006
1970.52	1.72483
1970.76	1.71617
1971.01	-0.212803
1971.25	4.57549
1971.5	9.36407
1971.75	3.60129
1971.99	8.3907
1972.24	1.6766
1972.48	2.63664
1972.73	0.71703
1972.98	3.59165
1973.22	8.38147
1973.47	7.41179
1973.71	4.52225
1973.96	6.42907
1974.21	7.37893
1974.45	3.53812
1974.7	6.40911
1974.94	3.53095
1975.19	6.4052
1975.44	9.28185
1975.68	7.36756
1975.93	5.45382
1976.17	5.45675
1976.42	3.54013
1976.66	5.45844
1976.91	8.335
1977.16	4.49551
1977.4	7.3692
1977.65	3.52686
1977.89	4.47859
1978.14	8.30507
1978.39	7.33619
1978.63	6.36882
1978.88	4.44437
1979.12	4.43911
1979.37	1.56098
1979.61	6.35217
1979.86	6.34985
1980.1	9.22475
1980.35	4.4301
1980.6	6.34052
1980.84	5.3719
1981.09	7.27853
1981.33	4.39793
1981.58	3.43158
1981.82	1.50893
1982.07	8.20835
1982.31	1.5
1982.56	9.15786
1982.81	7.23299
1983.05	6.26573
1983.3	10.0819
1983.54	7.1949
1983.79	9.09626
1984.03	7.17617
1984.28	9.08377
1984.52	11.9464
1984.77	8.11355
1985.02	11.9326
1985.26	10.0098
1985.51	8.08353
1985.75	9.03143
1986	12.8526
1986.24	11.8977
1986.49	12.8584
1986.73	9.99633
1986.98	9.04203
1987.22	3.30107
1987.47	6.17081
1987.71	11.8979
1987.96	10.9257
1988.21	13.7741
1988.45	5.15649
1988.7	16.5926
1988.94	12.7331
1989.19	9.85177
1989.43	15.3438
1989.68	6.22266
1989.92	7.26214
1990.17	10.6776
1990.41	13.0204
1990.66	11.6372
1990.9	11.7362
1991.15	11.8394
1991.39	12.7355
1991.64	12.9365
1991.88	7.67331
1992.13	12.8735
1992.37	15.6444
1992.62	11.9204
1992.86	14.0446
1993.11	14.9483
1993.35	16.0804
1993.6	16.3725
1993.84	15.5982
1994.09	12.978
1994.33	11.9026
1994.58	12.7892
1994.82	14.8331
1995.07	10.3658
1995.31	12.5492
1995.56	17.1016
1995.8	14.2954
1996.05	13.7146
1996.29	13.494
1996.54	15.2292
1996.78	14.8857
1997.03	14.5828
1997.27	14.7033
1997.52	15.308
1997.76	15.5758
1998.01	16.8152
1998.25	15.9303
1998.5	14.6409
1998.74	14.3409
1998.99	18.0065
1999.23	15.3239
1999.48	15.5779
1999.72	18.2629
1999.97	17.0463
2000.21	14.3756
2000.46	13.8869
2000.7	16.1934
2000.95	13.163
2001.19	18.2867
2001.43	16.9718
2001.68	15.7015
2001.92	17.2989
2002.17	15.5415
2002.41	15.7979
2002.66	15.2217
2002.9	19.1078
2003.15	17.0167
2003.39	19.2247
2003.64	16.4568
2003.88	18.564
2004.13	17.1268
2004.37	16.1968
2004.61	14.3499
2004.86	15.5699
2005.1	17.326
2005.35	18.2565
2005.59	19.0074
2005.84	18.2232
2006.08	17.0358
2006.33	18.0904
2006.57	14.7428
2006.81	15.009
2007.06	15.9559
2007.3	19.5052
2007.55	16.8556
2007.79	16.8852
2008.04	16.6354
2008.28	15.6182
2008.53	12.9463
2008.77	18.6299
2009.01	19.1525
2009.26	17.2417
2009.5	20.263
2009.75	14.1044
2009.99	14.8269
2010.24	18.1476
2010.48	18.6678
2010.73	17.3073
2010.97	16.2044
2011.21	15.8636
2011.46	17.9449
2011.7	14.0971
2011.95	20.8085
2012.19	13.7161
2012.43	17.3717
2012.68	19.251
2012.92	21.1306
2013.17	23.9433
2013.42	13.5715
2013.67	13.5472
2013.91	12.5931
2014.16	19.1553
2014.41	15.3734
2014.66	17.2247
2014.9	16.2618
2015.15	12.5019
2015.4	18.1358
2015.64	13.451
2015.89	13.4605
2016.14	17.223
2016.39	17.2181
2016.63	17.2327
2016.88	19.1528
2017.13	20.1018
2017.37	14.4604
2017.62	16.333
2017.87	16.3217
2018.11	14.4281
2018.36	16.2872
2018.61	14.3895
2018.86	12.4959
2019.1	18.1055
2019.35	12.4607
2019.6	18.0661
2019.84	18.9936
2020.09	9.62003
2020.34	15.2375
2020.58	12.4278
2020.83	8.68052
2021.08	15.2358
2021.33	13.3669
2021.57	9.62479
2021.82	14.3097
2022.07	7.75243
2022.31	10.5594
2022.56	12.4269
2022.81	14.2916
2023.05	11.4727
2023.3	9.58928
2023.55	12.3875
2023.8	10.5077
2024.04	12.3692
2024.29	10.4904
2024.54	12.3524
2024.78	16.0757
2025.03	9.5206
2025.27	9.50698
2025.52	10.4277
2025.77	8.54917
2026.02	4.80694
2026.26	4.79427
2026.51	7.59826
2026.76	11.3487
2027	8.57998
2027.25	9.55061
2027.5	13.3329
2027.74	14.2971
2027.99	10.55
2028.23	7.71721
2028.48	13.2832
2028.73	11.2866
2028.98	8.61364
2029.22	10.6558
2029.47	8.69246
2029.72	11.5462
2029.96	4.92059
2030.21	8.61303
2030.45	9.49678
2030.7	10.4292
2030.95	12.257
2031.19	10.4295
2031.44	6.72687
2031.69	8.58874
2031.93	8.5914
2032.18	10.4613
2032.43	6.74387
2032.67	6.76048
2032.92	7.71278
2033.17	7.72985
2033.41	9.61288
2033.66	7.75534
2033.91	7.77093
2034.15	6.8446
2034.4	6.8247
2034.64	5.86406
2034.89	6.75675
2035.14	5.81533
2035.38	6.76921
2035.63	10.5211
2035.87	6.8139
2036.12	9.65254
2036.37	5.00229
2036.61	9.67971
2036.86	4.9846
2037.11	10.5976
2037.35	10.6118
2037.6	4.0689
2037.84	6.87481
2038.09	8.74335
2038.34	9.67551
2038.58	2.19457
2038.83	2.19152
2039.08	8.72897
2039.32	7.79056
2039.57	5.91788
2039.81	8.71544
2040.06	5.90744
2040.31	3.09833
2040.55	4.95697
2040.8	5.88235
2041.04	6.80808
2041.29	8.66733
2041.54	7.73038
2041.78	5.86554
2042.03	10.5272
2042.27	7.72792
2042.52	5.86203
2042.77	5.85653
2043.01	1.19806
2043.26	8.65484
2043.5	4.93511
2043.75	8.67787
2044	6.8345
2044.24	5.92309
2044.49	6.86604
2044.73	7.80042
2044.98	11.5242
2045.23	5.91254
2045.47	8.67293
2045.72	8.73161
2045.96	6.8834
2046.21	6.94844
2046.45	3.27939
2046.7	3.24946
2046.95	9.75365
2047.19	3.18992
2047.44	5.06215
2047.68	-0.545082
2047.93	-3.36684
2048.17	5.95187
2048.42	5.02532
2048.67	6.89576
2048.91	1.30852
2049.16	6.91096
2049.4	1.32999
2049.65	2.27483
2049.89	3.22303
2050.14	2.30792
2050.39	5.12376
2050.63	4.2055
2050.88	4.21601
2051.12	6.09072
2051.37	4.22379
2051.61	5.15377
2051.86	7.01331
2052.11	4.21593
2052.35	0.485989
2052.6	2.36365
2052.84	0.501705
2053.09	6.11474
2053.33	5.19167
2053.58	1.46662
2053.82	2.41528
2054.07	3.37305
2054.31	0.579002
2054.56	0.588322
2054.8	11.8195
2055.05	0.597633
2055.3	6.21255
2055.54	5.27876
2055.79	3.40321
2056.03	-1.27172
2056.28	4.34091
2056.52	4.34167
2056.77	1.53758
2057.01	1.53979
2057.26	5.28301
2057.5	7.15921
2057.75	1.55829
2058	0.632744
2058.24	5.31858
2058.49	2.52391
2058.73	2.53822
2058.98	6.29463
2059.22	2.56466
2059.47	-0.232708
2059.71	2.58278
2059.96	7.27072
2060.2	7.27659
2060.45	-0.212658
2060.69	3.5307
2060.94	3.53141
2061.18	2.60517
2061.43	7.29632
2061.67	0.752296
2061.92	3.56775
2062.16	-0.171463
2062.41	2.64388
2062.65	0.778965
2062.9	4.53399
2063.14	-1.0749
2063.39	4.55741
2063.63	5.50637
2063.88	0.831619
2064.12	-1.97071
2064.37	6.47309
2064.61	4.60709
2064.86	1.80462
2065.1	5.56602
2065.35	2.76748
2065.59	-0.968086
2065.84	-3.76832
2066.08	2.81546
2066.33	-0.926926
2066.57	1.90033
2066.82	3.78546
2067.06	-0.900532
2067.31	1.92668
2067.55	3.81415
2067.8	3.82496
2068.04	0.078495
2068.29	-2.73027
2068.53	3.85795
2068.78	0.106159
2069.02	2.93744
2069.27	2.00344
2069.51	-4.57617
2069.76	1.99849
2070	-0.830132
2070.25	2.92618
2070.49	3.87474
2070.73	2.95742
2070.98	2.98275
2071.22	1.12734
2071.47	5.83316
2071.71	3.00582
2071.96	0.231899
2072.2	3.07761
2072.45	-1.62775
2072.69	0.258839
2072.94	2.14678
2073.18	-0.675129
2073.43	0.272209
2073.67	-2.54824
2073.92	-2.54081
2074.16	-0.650654
2074.4	3.12382
2074.65	4.07593
2074.89	-0.620121
2075.14	5.99036
2075.38	4.12588
2075.63	-1.50796
2075.87	-3.37077
2076.12	3.25349
2076.36	-1.45307
2076.6	1.38589
2076.85	-3.32653
2077.09	5.17165
2077.34	0.450657
2077.58	4.2228
2077.83	4.21067
2078.07	0.440376
2078.31	-1.43529
2078.56	0.464993
2078.8	0.474449
2079.05	4.25796
2079.29	2.38271
2079.54	1.45419
2079.78	4.31088
2080.03	1.49166
2080.27	0.559792
2080.51	-3.20748
2080.76	-0.361946
2081	3.42496
2081.25	-2.24203
2081.49	4.37597
2081.74	1.54678
2081.98	-1.28162
2082.22	-3.16597
2082.47	-1.26728
2082.71	3.4665
2082.96	-1.24973
2083.2	1.59258
2083.45	0.653492
2083.69	-4.0663
2083.93	-3.11607
2084.18	-2.16447
2084.42	0.677422
2084.67	0.68362
2084.91	-1.19913
2085.15	4.47863
2085.4	2.59562
2085.64	-0.232887
2085.89	-1.17107
2086.13	0.728222
2086.37	5.47091
2086.62	-0.183208
2086.86	-3.00599
2087.11	-2.99604
2087.35	0.799084
2087.59	-1.08068
2087.84	-1.07059
2088.08	-1.06353
2088.32	-2.00256
2088.57	-5.78051
2088.81	-1.9865
2089.06	-2.92442
2089.3	0.870274
2089.54	-4.79758
2089.79	-0.0510674
2090.03	-0.981991
2090.28	0.922634
2090.52	-0.963192
2090.76	0.940952
2091.01	2.84619
2091.25	0.0146561
2091.5	0.0255394
2091.74	0.984047
2091.98	-1.84379
2092.23	0.0695839
2092.47	-2.75807
2092.72	-0.84267
2092.96	0.125565
2093.2	0.142094
2093.45	2.05759
2093.69	0.174061
2093.93	3.04066
2094.18	1.15469
2094.42	1.1686
2094.66	2.1286
2094.91	1.1849
2095.15	1.19029
2095.39	2.14545
2095.64	4.04733
2095.88	-4.50547
2096.13	4.04893
2096.37	2.15148
2096.61	-1.64409
2096.86	-1.63816
2097.1	0.26754
2097.34	0.269985
2097.59	1.21981
2097.83	-2.57787
2098.07	-0.674641
2098.32	2.17866
2098.56	-2.56221
2098.8	-0.661381
2099.05	3.14244
2099.29	0.301434
2099.53	-0.642429
2099.78	3.15937
2100.02	0.319
2100.27	3.17369
2100.51	-0.613956
2100.75	-0.604763
2101	-1.54321
2101.24	-6.2749
2101.48	-4.36275
2101.73	2.29668
2101.97	-1.49289
2102.21	2.31378
2102.45	-0.529156
2102.7	-5.27062
2102.94	2.33307
2103.18	3.28408
2103.43	-2.41275
2103.67	0.438965
2103.92	-0.50388
2104.16	-1.44764
2104.4	-3.33809
2104.64	-3.328
2104.89	-1.41675
2105.13	1.44458
2105.37	1.45712
2105.62	0.521008
2105.86	3.38692
2106.1	3.40171
2106.35	-2.28936
2106.59	1.52366
2106.83	-1.31881
2107.08	2.49282
2107.32	-6.05307
2107.56	-1.29065
2107.8	-3.18819
2108.05	-1.28568
2108.29	-5.08778
2108.53	0.611633
2108.78	-0.340099
2109.02	-0.33979
2109.26	-1.28453
2109.51	2.52248
2109.75	2.53954
2109.99	1.60472
2110.23	-1.23724
2110.48	0.670399
2110.72	2.57787
2110.96	1.63538
2111.21	-0.256927
2111.45	2.60027
2111.69	1.65541
2111.93	-3.09091
2112.18	0.712227
2112.42	-1.18156
2112.66	-2.12377
2112.91	0.736221
2113.15	-0.202358
2113.39	1.70923
2113.63	4.57635
2113.88	2.6912
2114.12	-2.05002
2114.36	0.807007
2114.61	-0.138847
2114.85	1.76875
2115.09	0.827675
2115.33	-2.9655
2115.58	-3.90993
2115.82	-1.05408
2116.06	-0.0988235
2116.31	-0.0940628
2116.55	-1.9932
2116.79	3.70679
2117.03	-1.03744
2117.28	1.81733
2117.52	-2.92446
2117.76	1.83263
2118	-2.91108
2118.25	-1.00957
2118.49	-1.00743
2118.73	0.889416
2118.97	0.886711
2119.22	-0.0621147
2119.46	1.83488
2119.7	-1.95737
2119.94	0.887321
2120.19	-0.0591812
2120.43	-1.00408
2120.67	-0.998177
2120.91	-0.0419884
2121.16	-0.976406
2121.4	-0.965626
2121.64	-0.950535
2121.88	0.961815
2122.13	-1.86819
2122.37	-0.905132
2122.61	-1.8402
2122.85	-0.878578
2123.1	-1.81559
2123.34	1.99288
2123.58	-1.79386
2123.82	0.113865
2124.07	0.118828
2124.31	2.02109
2124.55	2.02261
2124.79	-0.825531
2125.03	-0.831024
2125.28	0.108746
2125.52	2.94394
2125.76	-1.79718
2126	-1.7994
2126.25	0.0921555
2126.49	-2.74835
2126.73	-3.69351
2126.97	0.0917664
2127.21	2.92944
2127.46	-1.79863
2127.7	-1.79386
2127.94	2.93944
2128.18	1.054
2128.43	-0.832741
2128.67	2.00854
2128.91	-0.819485
2129.15	1.07884
2129.39	2.03024
2129.64	2.98012
2129.88	-1.74028
2130.12	-5.51435
2130.36	-4.56313
2130.6	0.167477
2130.85	-2.66223
2131.09	1.12149
2131.33	0.180111
2131.57	0.18269
2131.81	-0.759472
2132.06	-0.756603
2132.3	-0.752266
2132.54	-5.46879
2132.78	3.972
2133.02	2.08516
2133.27	0.201996
2133.51	-0.734531
2133.75	0.218018
2133.99	1.17056
2134.23	1.17842
2134.48	-1.64371
2134.72	-4.46651
2134.96	3.09024
2135.2	2.15295
2135.44	-3.5028
2135.68	1.22144
2135.93	3.11257
2136.17	-0.659878
2136.41	3.10995
2136.65	-3.49338
2136.89	0.280396
2137.14	0.289337
2137.38	-2.53013
2137.62	0.306313
2137.86	1.26035
2138.1	-0.61087
2138.34	1.28008
2138.59	-3.43627
2138.83	-1.5501
2139.07	0.348667
2139.31	-1.51912
2139.55	2.26888
2139.79	0.372814
2140.03	-2.46003
2140.28	2.25336
2140.52	-1.51326
2140.76	1.31609
2141	0.377728
2141.24	0.382408
2141.49	-0.554714
2141.73	-1.48872
2141.97	-0.546276
2142.21	6.98473
2142.45	-0.541889
2142.69	3.23062
2142.93	2.3036
2143.18	-2.39172
2143.42	-0.474262
2143.66	-1.42211
2143.9	-0.555172
2144.14	1.3312
2144.38	-1.47455
2144.62	1.36442
2144.87	1.3836
2145.11	1.39775
2145.35	0.44482
2145.59	3.27557
2145.83	1.40385
2146.07	1.4091
2146.31	1.41339
2146.55	3.29768
2146.8	-1.39811
2147.04	4.24601
2147.28	3.30954
2147.52	0.492435
2147.76	-3.26331
2148	-2.32047
2148.24	0.50148
2148.48	0.504612
2148.73	2.38601
2148.97	-1.36763
2149.21	2.38998
2149.45	0.512375
2149.69	-2.30397
2149.93	-2.30987
2150.17	0.503563
2150.42	2.37652
2150.66	2.37629
2150.9	2.37965
2151.14	2.3859
2151.38	2.3959
2151.62	0.533806
2151.86	-1.33108
2152.1	-2.25693
2152.34	3.37914
2152.58	1.51533
2152.83	-1.29646
2153.07	0.581341
2153.31	3.39462
2153.55	1.52065
2153.79	-4.09925
2154.03	4.33985
2154.27	-0.344925
2154.51	1.52752
2154.75	1.52248
2154.99	-2.22984
2155.24	2.4433
2155.48	-3.17775
2155.72	4.29949
2155.96	-0.378548
2156.2	1.4888
2156.44	0.554649
2156.68	-2.24479
2156.92	-2.23945
2157.16	0.568851
2157.4	4.31228
2157.64	-1.28362
2157.89	-1.27254
2158.13	-0.325558
2158.37	0.62104
2158.61	1.56384
2158.85	0.635471
2159.09	-0.294106
2159.33	-0.290405
2159.57	-2.15691
2159.81	3.45057
2160.05	-0.286781
2160.29	4.38121
2160.53	-1.22367
2160.77	3.44311
2161.01	-1.22391
2161.25	1.57857
2161.5	0.650055
2161.74	-3.0788
2161.98	0.656567
2162.22	-0.271152
2162.46	1.60096
2162.7	1.60749
2162.94	0.680355
2163.18	-3.04753
2163.42	2.55108
2163.66	-1.17689
2163.9	-2.10634
2164.14	2.55865
2164.38	-1.16846
2164.62	-3.96527
2164.86	0.692631
2165.11	3.48854
2165.35	4.42795
2165.59	-0.221245
2165.83	0.71722
2166.07	2.58765
2166.31	1.66232
2166.55	2.59621
2166.79	0.735203
2167.03	6.32545
2167.27	-3.92093
2167.51	0.736866
2167.75	-2.05775
2167.99	0.731258
2168.23	-4.86041
2168.47	2.57186
2168.71	0.713001
2168.95	-0.211426
2169.19	-0.203548
2169.43	-0.193233
2169.67	1.67943
2169.91	1.69509
2170.15	0.782265
2170.39	-1.9918
2170.63	0.814625
2170.87	-1.0391
2171.11	0.827057
2171.35	-0.104694
2171.59	-0.101791
2171.83	-3.83143
2172.07	-0.126034
2172.31	0.797318
2172.56	0.796764
2172.79	0.796726
2173.04	-1.9894
2173.28	-5.70093
2173.51	-1.05025
2173.76	0.813187
2174	1.75041
2174.24	4.54833
2174.48	0.840046
2174.72	0.84721
2174.96	-0.076107
2175.2	1.78806
2175.44	-3.7833
2175.68	-1.92095
2175.92	0.870461
2176.16	0.874866
2176.4	0.878635
2176.64	5.52697
2176.88	3.66857
2177.12	0.884998
2177.36	-0.038353
2177.6	2.7548
2177.84	-0.955011
2178.08	3.69451
2178.32	1.8433
2178.55	-0.941296
2178.8	2.7702
2179.03	-0.945354
2179.28	1.84448
2179.52	0.922832
2179.75	0.928646
2180	4.64836
2180.23	-1.84607
2180.47	-1.84106
2180.71	-3.69365
2180.95	-0.905014
2181.19	0.95488
2181.43	2.81583
2181.67	-0.894325
2181.91	0.0352325
2182.15	3.74897
2182.39	6.53621
2182.63	-0.886929
2182.87	-1.81265
2183.11	3.7559
2183.35	3.75393
2183.59	1.89615
2183.83	-2.74413
2184.07	0.962055
2184.31	7.4488
2184.55	0.961906
2184.79	0.965313
2185.03	0.971348
2185.27	-0.873787
2185.51	0.986973
2185.75	0.994438
2185.99	0.0765228
2186.23	1.0139
2186.47	-2.68431
2186.7	1.9629
2186.95	0.122089
2187.18	0.136612
2187.42	-0.777313
2187.66	-0.763401
2187.9	5.74944
2188.14	0.183426
2188.38	2.04209
2188.62	4.82655
2188.86	-2.60296
2189.1	3.89251
2189.34	1.10461
2189.58	2.9555
2189.82	4.8033
2190.06	-2.61941
2190.3	0.16227
2190.54	0.165497
2190.78	2.95172
2191.01	1.1051
2191.25	3.89385
2191.49	2.97121
2191.73	2.97774
2191.97	-1.65138
2192.21	4.84753
2192.45	1.14537
2192.69	0.22493
2192.93	0.232262
2193.17	2.09764
2193.41	1.17999
2193.65	-0.666424
2193.89	3.05831
2194.13	0.291454
2194.36	1.2406
2194.6	1.25577
2194.84	-2.45277
2195.08	0.338734
2195.32	1.26866
2195.56	1.26947
2195.8	2.19774
2196.04	0.336338
2196.28	4.0466
2196.52	-2.46137
2196.76	4.03067
2197	2.16993
2197.23	2.16744
2197.47	0.310467
2197.71	2.16471
2197.95	2.16893
2198.19	2.17394
2198.43	-1.52897
2198.67	0.338047
2198.91	-1.50604
2199.15	0.363808
2199.38	4.09383
2199.62	-1.46573
2199.86	-0.522392
2200.1	2.2808
2200.34	8.81184
2200.58	1.3928
2200.82	2.34326
2201.06	-0.433205
2201.3	-1.35177
2201.54	3.31933
2201.77	2.3769
2202.01	-1.37688
2202.25	1.34795
2202.49	1.30397
2202.73	0.400967
2202.97	4.17874
2203.21	3.28053
2203.45	0.484287
2203.68	5.13009
2203.92	4.2354
2204.16	7.15649
2204.4	4.31454
2204.64	0.585623
2204.88	2.45982
2205.12	4.30377
2205.36	-0.380524
2205.59	4.24982
2205.83	1.44361
2206.07	1.44203
2206.31	2.37594
2206.55	-2.26248
2206.79	1.46185
2207.03	0.523232
2207.26	1.45831
2207.5	1.46664
2207.74	1.47621
2207.98	-0.373972
2208.22	-0.363876
2208.46	3.3687
2208.7	0.586702
2208.93	1.52685
2209.17	3.39721
2209.41	0.610428
2209.65	-2.17824
2209.89	1.55042
2210.13	3.41522
2210.36	1.55703
2210.6	7.15323
2210.84	3.43563
2211.08	2.51273
2211.32	3.45335
2211.56	-1.19843
2211.8	2.53868
2212.03	-1.1805
2212.27	2.55968
2212.51	5.36625
2212.75	1.64067
2212.99	2.57422
2213.23	3.50645
2213.46	3.50606
2213.7	-2.09144
2213.94	4.43246
2214.18	-1.15679
2214.42	-4.87807
2214.66	0.733593
2214.89	2.61572
2215.13	1.68889
2215.37	7.29576
2215.61	-0.16745
2215.85	-3.89769
2216.08	0.774109
2216.32	0.777071
2216.56	-2.02156
2216.8	-0.152336
2217.04	3.58338
2217.28	2.65116
2217.51	-1.08044
2217.75	2.65787
2217.99	2.66218
2218.23	2.66477
2218.47	1.73338
2218.7	0.803804
2218.94	-1.0579
2219.18	2.68475
2219.42	-1.04294
2219.66	-0.100342
2219.9	-1.02863
2220.13	-1.95674
2220.37	1.78727
2220.61	-1.94938
2220.85	-2.88275
2221.09	-0.0776653
2221.32	-1.94728
2221.56	-2.88609
2221.8	-2.89135
2222.04	-0.0939198
2222.27	6.43773
2222.51	-1.96602
2222.75	1.76941
2222.99	2.70778
2223.23	-0.085886
2223.46	-0.0788345
2223.7	2.73087
2223.94	-4.73231
2224.18	1.81938
2224.42	0.897266
2224.65	-1.89629
2224.89	-0.015995
2225.13	0.928764
2225.37	-1.86911
2225.6	-0.923508
2225.84	0.960033
2226.08	1.90603
2226.32	-0.894686
2226.56	1.92484
2226.79	0.0581989
2227.03	1.00441
2227.27	0.0755043
2227.51	3.83309
2227.74	1.02642
2227.98	1.03078
2228.22	-3.65665
2228.46	0.0940742
2228.69	-3.65663
2228.93	-2.71891
2229.17	0.0941944
2229.41	3.84445
2229.64	-5.52831
2229.88	-0.833714
2230.12	-1.76151
2230.36	-1.75225
2230.6	2.00833
2230.83	0.139822
2231.07	-3.60647
2231.31	0.157028
2231.55	-0.77272
2231.78	-0.76326
2232.02	0.184202
2232.26	-1.68699
2232.5	-3.55905
2232.73	0.208891
2232.97	2.09725
2233.21	-2.59693
2233.45	-3.5305
2233.68	-0.700958
2233.92	-0.693274
2234.16	1.19532
2234.39	1.20085
2234.63	2.14215
2234.87	4.02361
2235.11	-3.50736
2235.34	3.07572
2235.58	1.1841
2235.82	-0.703144
2236.06	-2.58142
2236.29	-1.63805
2236.53	0.246275
2236.77	2.13086
2237	1.19341
2237.24	-3.50622
2237.48	0.265522
2237.72	0.273968
2237.95	-1.59501
2238.19	0.302837
2238.43	-0.625521
2238.67	-1.55777
2238.9	1.27994
2239.14	0.34853
2239.38	-3.41172
2239.61	-0.577837
2239.85	0.364475
2240.09	0.361774
2240.33	0.3545
2240.56	0.348379
2240.8	1.28891
2241.04	-0.581659
2241.27	2.26195
2241.51	-1.50827
2241.75	2.26952
2241.99	0.386438
2242.22	-1.49743
2242.46	5.11337
2242.7	-1.48844
2242.93	-0.539129
2243.17	0.407089
2243.41	-1.48071
2243.64	2.29246
2243.88	-2.42999
2244.12	1.34408
2244.36	1.34462
2244.59	-3.37143
2244.83	-1.47798
2245.07	2.30896
2245.3	2.3242
2245.54	1.39311
2245.78	0.457113
2246.01	0.46484
2246.25	1.41859
2246.49	3.31818
2246.72	4.27147
2246.96	-5.18363
2247.2	5.2295
2247.43	0.504929
2247.67	-0.43679
2247.91	-0.43401
2248.14	0.513412
2248.38	-2.32612
2248.62	1.45891
2248.85	-3.27334
2249.09	1.45778
2249.33	1.45728
2249.56	-3.27362
2249.8	-0.428352
2250.04	3.36271
2250.27	-1.36869
2250.51	1.46792
2250.75	1.46288
2250.98	2.40342
2251.22	1.45089
2251.46	0.500578
2251.69	3.33371
2251.93	2.38768
2252.17	2.39028
2252.4	-5.16933
2252.64	-5.164
2252.88	-2.31966
2253.11	1.47583
2253.35	3.38843
2253.59	1.50875
2253.82	-3.21727
2254.06	-2.2617
2254.3	0.588425
2254.53	-0.352135
2254.77	-2.243
2255.01	-1.29304
2255.24	-2.24283
2255.48	-2.24019
2255.72	4.3984
2255.95	-0.340048
2256.19	-0.3375
2256.42	-2.22782
2256.66	-2.22109
2256.9	-1.26604
2257.13	-0.310987
2257.37	-2.20277
2257.61	2.54957
2257.84	0.657228
2258.08	-1.23713
2258.32	-1.2342
2258.55	-1.2317
2258.79	0.670942
2259.02	-1.22443
2259.26	-2.16891
2259.5	-0.263096
2259.73	-0.2589
2259.97	-1.20541
2260.2	1.65052
2260.44	-5.94899
2260.68	2.61029
2260.91	2.61472
2261.15	-2.13321
2261.39	-4.02513
2261.62	1.69023
2261.86	-1.16139
2262.1	-1.15837
2262.33	-3.05789
2262.57	-0.19923
2262.8	1.71001
2263.04	0.766157
2263.28	-0.177744
2263.51	3.64179
2263.75	-0.157547
2263.98	-1.09863
2264.22	-0.131941
2264.46	-2.02678
2264.69	1.80163
2264.93	-1.05122
2265.16	3.73123
2265.4	-1.99033
2265.64	1.83677
2265.87	1.83905
2266.11	-4.84524
2266.34	0.884966
2266.58	0.879032
2266.81	-1.9917
2267.05	-4.86145
2267.29	1.81417
2267.52	0.855665
2267.76	3.71417
2267.99	-2.01359
2268.23	-0.111574
2268.47	1.79134
2268.7	0.836996
2268.94	0.839214
2269.17	-0.108854
2269.41	-0.101028
2269.65	0.862534
2269.88	2.78172
2270.12	3.74781
2270.35	-1.01402
2270.59	1.86278
2270.82	1.87035
2271.06	0.920052
2271.3	-2.89533
2271.53	-6.71341
2271.77	-0.015707
2272	-0.966452
2272.24	-0.00301743
2272.47	-0.95525
2272.71	1.91659
2272.95	-4.77775
2273.18	-0.948071
2273.42	0.968576
2273.65	1.92838
2273.89	0.0174294
2274.12	-2.85075
2274.36	-1.89106
2274.6	2.89712
2274.83	-1.88584
2275.07	-6.66928
2275.3	0.0348644
2275.54	1.95256
2275.77	-0.916437
2276.01	0.0411835
2276.24	4.83493
2276.48	-3.77558
2276.72	2.93888
2276.95	-0.88549
2277.18	-2.79514
2277.42	-1.82885
2277.66	-3.73605
2277.89	3.95072
2278.13	2.04619
2278.36	3.02187
2278.6	-0.813179
2278.83	3.99251
2279.07	-1.76863
2279.3	3.03361
2279.54	-0.808912
2279.78	-1.77345
2280.01	-0.825764
2280.24	-0.83349
2280.48	1.07796
2280.72	-1.80549
2280.95	-0.85121
2281.19	-0.854446
2281.42	-3.73214
2281.66	0.0995464
2281.89	-5.65279
2282.13	1.06096
2282.36	-1.81132
2282.6	-0.84713
2282.83	-1.79886
2283.07	-0.831543
2283.3	4.93319
2283.54	0.146263
2283.77	-0.80015
2284.01	-0.784723
2284.24	-3.65355
2284.48	0.206392
2284.71	1.17776
2284.95	-0.740849
2285.19	-0.732534
2285.42	1.20009
2285.65	-1.68327
2285.89	2.16838
2286.12	2.16243
2286.36	3.11281
2286.59	-1.69609
2286.83	4.07864
2287.06	-2.64866
2287.3	0.253454
2287.54	-2.62165
2287.77	-1.65311
2288	0.277678
2288.24	4.1413
2288.47	2.21323
2288.71	-1.64353
2288.94	1.24251
2289.18	0.274933
2289.41	1.22916
2289.65	-0.706356
2289.88	2.1702
2290.12	2.15753
2290.35	5.03827
2290.59	-2.65483
2290.82	3.11453
2291.06	0.232368
2291.29	5.04581
2291.53	-1.6758
2291.76	3.14585
2292	2.19258
2292.23	0.274597
2292.47	0.281275
2292.7	3.17721
2292.94	3.18662
2293.17	3.19551
2293.41	1.27577
2293.64	4.17288
2293.88	-1.60467
2294.11	-3.52946
2294.34	-2.56659
2294.58	-2.56884
2294.81	2.24557
2295.05	-0.649689
2295.28	3.20002
2295.52	-2.58213
2295.75	-1.62211
2295.99	-1.62508
2296.22	-0.664745
2296.46	-0.670755
2296.69	-2.60634
2296.93	1.24144
2297.16	6.05606
2297.39	0.288778
2297.63	0.295769
2297.86	1.26678
2298.1	-1.61186
2298.33	2.25268
2298.57	0.334106
2298.8	-1.58764
2299.04	-3.50841
2299.27	-0.607716
2299.51	-1.56434
2299.74	3.26475
2299.97	0.37534
2300.21	-1.55333
2300.44	1.34186
2300.68	5.20067
2300.91	3.27654
2301.15	0.38879
2301.38	-0.571133
2301.61	7.1548
2301.85	-1.52869
2302.08	0.403561
2302.32	-0.561655
2302.55	1.36694
2302.79	2.33086
2303.02	3.29783
2303.25	0.402681
2303.49	-0.563177
2303.72	0.402378
2303.96	-2.49132
2304.19	-4.41794
2304.43	-2.48168
2304.66	0.420406
2304.89	1.39056
2305.13	-4.39853
2305.36	2.36934
2305.6	1.40799
2305.83	-1.48792
2306.07	-1.48459
2306.3	1.4192
2306.53	1.42411
2306.77	0.459864
2307	-0.505222
2307.24	-0.504814
2307.47	0.46155
2307.7	3.35881
2307.94	-2.44277
2308.17	0.454645
2308.41	-1.4799
2308.64	4.31503
2308.87	2.3835
2309.11	2.38577
2309.34	-3.40637
2309.58	3.3645
2309.81	-1.45985
2310.04	-0.482742
2310.28	-4.34457
2310.51	3.39766
2310.75	1.46446
2310.98	-3.37281
2311.21	1.46125
2311.45	-0.479925
2311.68	-2.42999
2311.92	-1.48212
2312.15	-5.35435
2312.38	2.36209
2312.62	2.35765
2312.85	1.38716
2313.08	1.38333
2313.32	-0.546497
2313.55	-2.47252
2313.79	-0.532808
2314.02	1.41086
2314.25	-3.40905
2314.49	-0.501741
2314.72	1.44111
2314.95	-5.315
2315.19	-3.37147
2315.42	-0.4641
2315.66	-0.472046
2315.89	-2.41351
2316.12	2.4147
2316.36	1.43925
2316.59	-3.40846
2316.82	0.44655
2317.06	4.30445
2317.29	3.33813
2317.52	0.443071
2317.76	-1.48655
2317.99	3.3511
2318.23	1.42494
2318.46	1.41372
2318.69	3.33946
2318.93	-1.49296
2319.16	7.19055
2319.39	1.39255
2319.63	1.38744
2319.86	6.20846
2320.09	5.24049
2320.33	2.34552
2320.56	4.27597
2320.79	6.20521
2321.03	1.38312
2321.26	7.17875
2321.5	3.32318
2321.73	10.088
2321.96	3.33605
2322.2	7.20951
2322.43	6.25453
2322.66	3.36376
2322.9	5.30001
2323.13	8.19765
2323.36	6.26519
2323.6	8.2008
2323.83	5.30161
2324.06	12.0719
2324.3	14.9734
2324.53	11.1026
2324.76	14.9673
2325	12.0548
2325.23	16.8722
2325.46	24.5821
2325.7	21.6704
2325.93	21.6588
2326.16	30.336
2326.4	40.9397
2326.63	45.7481
2326.86	68.8861
2327.09	91.0494
2327.33	140.207
2327.56	210.554
2327.79	257.756
2328.03	288.551
2328.26	280.804
2328.49	212.385
2328.73	161.301
2328.96	115.038
2329.19	80.3137
2329.43	53.3117
2329.66	38.8382
2329.89	36.9032
2330.13	19.5617
2330.36	29.1989
2330.59	17.634
2330.82	15.7013
2331.06	11.8424
2331.29	7.98634
2331.52	6.06036
2331.76	6.06327
2331.99	5.10342
2332.22	1.255
2332.46	1.24322
2332.69	5.08658
2332.92	5.07833
2333.16	4.10739
2333.39	4.09958
2333.62	2.16665
2333.85	-4.57824
2334.09	2.15327
2334.32	0.220562
2334.55	1.17399
2334.79	0.200071
2335.02	2.11536
2335.25	3.06995
2335.48	4.0267
2335.72	2.09768
2335.95	4.98009
2336.18	1.13181
2336.41	2.08846
2336.65	1.1192
2336.88	1.11293
2337.11	3.03024
2337.34	-0.821281
2337.58	-2.7501
2337.81	1.08975
2338.04	0.121092
2338.28	2.03671
2338.51	1.06927
2338.74	2.98518
2338.97	0.0957928
2339.21	-0.86923
2339.44	1.04886
2339.67	1.04354
2339.91	2.95962
2340.14	-2.81521
2340.37	-0.902243
2340.6	4.85208
2340.84	2.91886
2341.07	1.94498
2341.3	0.969585
2341.53	0.953264
2341.77	5.73248
2342	0.919363
2342.23	1.86629
2342.46	-1.02234
2342.7	-1.03344
2342.93	3.74991
2343.16	2.78258
2343.39	1.81654
2343.63	4.68587
2343.86	3.71864
2344.09	1.79311
2344.32	3.70349
2344.56	0.822762
2344.79	1.77515
2345.02	3.68399
2345.25	-1.11882
2345.49	4.62106
2345.72	2.69073
2345.95	2.67377
2346.18	-3.08808
2346.41	-1.18618
2346.65	0.718559
2346.88	-2.16455
2347.11	1.65563
2347.34	2.60151
2347.58	1.63256
2347.81	2.58029
2348.04	-2.21506
2348.27	-0.307489
2348.5	1.60213
2348.74	0.637699
2348.97	3.50099
2349.2	3.48795
2349.43	2.51481
2349.67	-2.29497
2349.9	3.422
2350.13	0.525644
2350.36	-0.459642
2350.59	-0.493095
2350.83	5.17734
2351.06	3.18482
2351.29	3.2293
2351.52	0.469244
2351.75	-3.3383
2351.99	0.413744
2352.22	-0.588211
2352.45	-1.55165
2352.68	1.30404
2352.91	2.22568
2353.15	-4.48965
2353.38	-1.66397
2353.61	-0.716089
2353.84	5.93682
2354.07	0.202076
2354.31	-3.62039
2354.54	-0.777332
2354.77	-0.782974
2355	1.11674
2355.23	2.05496
2355.47	-1.77244
2355.7	4.88008
2355.93	0.0990658
2356.16	-0.871687
2356.39	1.96554
2356.63	-1.8685
2356.86	0.957163
2357.09	-0.0218163
2357.32	-0.043726
2357.55	3.73897
2357.79	0.865105
2358.02	-2.00745
2358.25	-2.0278
2358.48	-0.146509
2358.71	-0.1654
2358.94	1.71124
2359.18	0.741001
2359.41	-0.228346
2359.64	-2.14719
2359.87	1.63084
2360.1	-2.1912
2360.33	-0.316607
2360.57	-2.24057
2360.8	3.42821
2361.03	2.45265
2361.26	1.47728
2361.49	0.501724
2361.72	-4.26592
2361.96	-0.501019
2362.19	1.36638
2362.42	-2.45232
2362.65	-0.586029
2362.88	5.0677
2363.11	-4.42725
2363.34	1.22621
2363.58	3.09277
2363.81	0.228683
2364.04	-0.742535
2364.27	-3.606
2364.5	-2.68619
2364.73	2.96196
2364.97	0.0973358
