#Acq. time (s)=	30
#Accumulations=	2
#Range (cm-¹)=	1200...2365
#Windows=	3
#Auto scanning=	Off
#Autofocus=	Off
#Macrospot=	Off
#AutoExposure=	Off
#Spike filter=	Multiple accum.
#Delay time (s)=	2
#Binning=	1
#Readout mode=	Signal
#DeNoise=	Off
#ICS correction=	On
#Dark correction=	Off
#Inst. Process=	Off
#Detector Gain=	Best Dynamic
#Detector ADC=	50 kHz HS
#Detector temperature (°C)=	-60.09
#Instrument=	LabRAM HR Evol
#Detector=	SIN-EM FIVIS
#Objective=	x50_VIS_LWD
#Grating=	1800 (450-850nm)
#ND Filter=	100%
#Laser=	532nm_Edge
#Hole=	100.021
#Temperature=	0
#Range=	Visible
#StageXY=	75x50mm Scan+
#StageZ=	Z motor
#X (µm)=	0
#Y (µm)=	0
#Z (µm)=	-10.1
#Full time(mm:ss)=	3:23
#Project=	21_11_26
#Sample=	BU19(2)w
#Site=	
#Title=	BU19(2)w-A-FF2b-FI03-V_1800 (450-850nm)_532nm_Edge_100%_x50_VIS_LWD_H100um_30sX2
#Remark=	
#Date=	26.11.2021 14:57
#Acquired=	26.11.2021 14:57:04
#Base:Fit=	16.12.2021 16:00:56
#Base:Fit=	16.12.2021 16:09:50
#Base:Sub=	16.12.2021 16:09:51
1202.72	5.92043
1203	8.42207
1203.28	3.27827
1203.56	10.9705
1203.84	13.2561
1204.11	-0.566437
1204.39	1.75291
1204.67	3.03291
1204.95	1.09203
1205.23	6.64676
1205.5	5.73347
1205.78	10.1854
1206.06	4.96445
1206.34	2.96445
1206.61	13.8362
1206.89	1.11095
1207.17	5.54158
1207.45	8.90193
1207.73	2.63306
1208	3.86084
1208.28	6.16368
1208.56	5.24956
1208.84	-1.02354
1209.11	-3.01421
1209.39	-2.86467
1209.67	1.56973
1209.95	2.80116
1210.23	-2.38789
1210.5	2.03345
1210.78	3.22742
1211.06	1.21643
1211.34	-0.788277
1211.61	3.60664
1211.89	-0.532318
1212.17	-3.61172
1212.45	-0.29258
1212.72	0.900398
1213	4.22057
1213.28	0.0806122
1213.56	6.59846
1213.83	-1.78799
1214.11	11.1115
1214.39	4.86886
1214.67	-3.50687
1214.94	-3.36906
1215.22	3.15357
1215.5	-4.16801
1215.78	1.28342
1216.05	-11.3658
1216.33	2.58102
1216.61	2.68022
1216.89	7.02533
1217.16	0.739021
1217.44	0.838699
1217.72	-5.43446
1218	-6.39615
1218.27	5.38647
1218.55	0.178879
1218.83	5.58626
1219.1	3.57014
1219.38	7.92356
1219.66	0.601929
1219.94	0.704308
1220.21	-1.31995
1220.49	-0.152115
1220.77	-1.10408
1221.04	2.18066
1221.32	0.157707
1221.6	-7.17337
1221.88	-8.14235
1222.15	-3.82059
1222.43	-4.80708
1222.71	-4.73975
1222.98	10.1406
1223.26	-10.96
1223.54	-0.319046
1223.81	-0.254944
1224.09	-4.4133
1224.37	-0.120293
1224.65	4.1778
1224.92	-3.1366
1225.2	5.38856
1225.48	-5.08047
1225.76	4.51745
1226.03	4.61278
1226.31	-5.85047
1226.59	3.73348
1226.86	8.0349
1227.14	0.712791
1227.42	-0.273674
1227.69	-2.34094
1227.97	-0.222649
1228.25	-1.2418
1228.52	4.05713
1228.8	-1.19843
1229.08	0.923668
1229.35	2.04359
1229.63	0.199539
1229.91	-1.68036
1230.18	6.76078
1230.46	-7.99421
1230.74	0.478973
1231.01	2.66366
1231.29	3.74047
1231.57	-0.545876
1231.84	3.73815
1232.12	0.650696
1232.4	2.81539
1232.67	0.769821
1232.95	-8.62363
1233.23	1.94167
1233.5	-2.20505
1233.78	-2.14519
1234.06	3.17209
1234.33	5.34031
1234.61	-4.0488
1234.89	-3.9801
1235.16	0.293289
1235.44	1.40701
1235.71	-4.83697
1235.99	-2.67025
1236.27	-1.55807
1236.54	5.8549
1236.82	-0.408928
1237.1	3.83711
1237.37	5.97448
1237.65	3.89859
1237.93	6.02253
1238.2	8.14445
1238.48	7.11565
1238.76	-0.207016
1239.03	10.3084
1239.31	8.24467
1239.58	-0.106445
1239.86	9.36721
1240.14	-0.0263062
1240.41	3.16117
1240.69	3.20552
1240.97	2.20347
1241.24	-0.893974
1241.52	3.34452
1241.79	5.47659
1242.07	-0.78373
1242.35	2.39321
1242.62	1.38735
1242.9	5.62399
1243.18	1.482
1243.45	2.57912
1243.73	-2.62457
1244	7.89658
1244.28	7.93944
1244.56	5.87895
1244.83	6.95882
1245.11	4.89096
1245.39	9.10193
1245.66	-6.59805
1245.94	8.07636
1246.21	9.13131
1246.49	9.15379
1246.76	11.2743
1247.04	7.12069
1247.32	10.2918
1247.59	5.08387
1247.87	7.20695
1248.14	6.18326
1248.42	19.7848
1248.7	4.10923
1248.97	3.08975
1249.25	3.12385
1249.52	9.43423
1249.8	2.13631
1250.08	8.43764
1250.35	8.46664
1250.63	8.47781
1250.9	4.3029
1251.18	10.5843
1251.45	6.41509
1251.73	-0.885513
1252.01	12.7083
1252.28	13.7631
1252.56	14.817
1252.83	7.51794
1253.11	9.61372
1253.39	9.62283
1253.66	15.9
1253.94	10.7064
1254.21	8.6554
1254.49	12.8689
1254.76	13.9538
1255.04	11.895
1255.31	15.0498
1255.59	14.0342
1255.87	8.83454
1256.14	10.9406
1256.42	9.92105
1256.69	15.17
1256.97	28.7816
1257.24	13.1386
1257.52	21.5103
1257.79	23.6059
1258.07	21.5288
1258.35	15.2763
1258.62	14.2443
1258.9	22.6055
1259.17	20.5151
1259.45	30.9685
1259.72	15.3413
1260	29.9874
1260.27	27.9577
1260.55	38.3917
1260.82	41.5148
1261.1	40.4486
1261.37	52.958
1261.65	50.8691
1261.92	72.8105
1262.2	71.9096
1262.48	75.2478
1262.75	80.5861
1263.02	83.4902
1263.3	76.0198
1263.58	79.0974
1263.85	65.6896
1264.13	61.6302
1264.4	47.1314
1264.68	49.2973
1264.95	41.9201
1265.23	39.8175
1265.5	38.7871
1265.78	30.4319
1266.05	28.3388
1266.33	33.5772
1266.6	23.1496
1266.88	17.9509
1267.15	24.2531
1267.43	22.1979
1267.7	23.2821
1267.98	25.4152
1268.25	22.3207
1268.53	20.2812
1268.8	23.4693
1269.08	20.3585
1269.35	22.4818
1269.63	21.459
1269.9	24.6101
1270.18	19.3651
1270.45	28.776
1270.73	7.82897
1271	18.2905
1271.28	20.3816
1271.55	20.3885
1271.83	23.5284
1272.1	22.5018
1272.38	23.5825
1272.65	23.6213
1272.93	19.4801
1273.2	13.2301
1273.47	19.5516
1273.75	26.9251
1274.03	22.7691
1274.3	21.7571
1274.57	20.7357
1274.85	22.8503
1275.12	24.9567
1275.4	27.0674
1275.67	20.7961
1275.95	25.0201
1276.22	40.7898
1276.5	30.332
1276.77	18.8144
1277.05	38.7944
1277.32	27.2697
1277.6	33.6084
1277.87	29.4428
1278.14	37.8863
1278.42	48.4317
1278.69	49.5172
1278.97	62.1834
1279.24	59.0615
1279.52	61.199
1279.79	92.7627
1280.07	106.436
1280.34	136.929
1280.61	180.053
1280.89	224.26
1281.16	293.725
1281.44	429.556
1281.71	620.223
1281.99	780.329
1282.26	1044.53
1282.53	1227.82
1282.81	1350.1
1283.08	1381.46
1283.36	1290.28
1283.63	1086.22
1283.91	844.123
1284.18	598.227
1284.45	413.554
1284.73	294.46
1285	212.348
1285.28	149.134
1285.55	124.818
1285.83	104.761
1286.1	83.7206
1286.37	65.8645
1286.65	59.5584
1286.92	54.2837
1287.2	49.0314
1287.47	41.6682
1287.75	43.7713
1288.02	36.3981
1288.29	37.4532
1288.57	26.9426
1288.84	33.2736
1289.12	39.6098
1289.39	29.114
1289.66	22.8289
1289.94	20.754
1290.21	27.1064
1290.49	21.8704
1290.76	21.8847
1291.03	21.8896
1291.31	7.1541
1291.58	28.2323
1291.86	20.8738
1292.13	21.9387
1292.4	14.5824
1292.68	20.9226
1292.95	6.18807
1293.22	19.8882
1293.5	15.6956
1293.77	18.8991
1294.05	7.3572
1294.32	22.1666
1294.59	12.7024
1294.87	16.9369
1295.14	16.9471
1295.42	13.8147
1295.69	6.47988
1295.96	12.8709
1296.24	19.2838
1296.51	12.9954
1296.79	7.73582
1297.06	14.0968
1297.33	13.0481
1297.61	4.59754
1297.88	4.60007
1298.15	11.995
1298.43	10.9355
1298.7	18.3553
1298.97	7.80577
1299.25	12.0347
1299.52	5.70741
1299.79	9.93594
1300.07	13.12
1300.34	12.0967
1300.62	4.73246
1300.89	2.64121
1301.16	4.76839
1301.44	11.1193
1301.71	13.2539
1301.98	12.2305
1302.25	6.98105
1302.53	4.89423
1302.8	19.7043
1303.08	9.15967
1303.35	-0.331932
1303.62	2.84891
1303.9	2.85634
1304.17	2.87385
1304.44	8.17543
1304.72	2.91615
1304.99	8.21532
1305.26	5.05937
1305.54	5.06735
1305.81	5.07193
1306.08	9.29738
1306.35	4.02531
1306.63	4.03263
1306.9	2.99306
1307.18	7.23287
1307.45	-3.286
1307.72	5.1755
1308	0.977615
1308.27	-1.11035
1308.54	6.29893
1308.81	3.15268
1309.09	0.0145721
1309.36	2.15768
1309.63	-4.14049
1309.91	-0.942841
1310.18	5.41858
1310.45	3.32913
1310.73	-2.98371
1311	-0.849586
1311.27	0.232056
1311.55	3.42558
1311.82	9.78513
1312.09	-0.73983
1312.37	-7.03844
1312.64	5.66473
1312.91	-0.64151
1313.18	7.82737
1313.46	-6.93983
1313.73	2.58403
1314	0.491684
1314.28	-1.59918
1314.55	-4.74068
1314.82	4.78875
1315.09	3.76559
1315.37	0.632469
1315.64	7.00214
1315.91	-3.52329
1316.18	4.96082
1316.46	-0.296982
1316.73	-0.274651
1317	3.97336
1317.28	0.829842
1317.55	1.91276
1317.82	6.17422
1318.09	0.926712
1318.37	7.29671
1318.64	-4.29382
1318.91	1.01737
1319.18	-4.23711
1319.46	2.12767
1319.73	-1.01639
1320	-3.10346
1320.28	2.21131
1320.55	1.18401
1320.82	-8.29882
1321.09	-1.94104
1321.37	3.35371
1321.64	4.41882
1321.91	-4.0174
1322.18	-2.94395
1322.46	-0.822525
1322.73	0.252892
1323	-0.781319
1323.27	-10.2512
1323.55	-0.743633
1323.82	1.4026
1324.09	4.59899
1324.36	-3.80505
1324.64	6.76779
1324.91	-5.85394
1325.18	2.61041
1325.45	1.59128
1325.73	-1.55756
1326	-1.55505
1326.27	0.545998
1326.54	1.5834
1326.81	1.59541
1327.09	1.62199
1327.36	0.623573
1327.63	-5.61976
1327.9	-7.67341
1328.18	2.91703
1328.45	-0.187092
1328.72	-1.18405
1328.99	0.978893
1329.27	7.34827
1329.54	-5.28712
1329.81	1.08253
1330.08	1.11283
1330.35	3.25085
1330.63	-1.99853
1330.9	2.24197
1331.17	0.151093
1331.44	3.32775
1331.71	1.22837
1331.99	-4.03214
1332.26	-0.860298
1332.53	1.26142
1332.8	-7.14172
1333.07	0.236214
1333.35	-1.85476
1333.62	-0.789112
1333.89	3.42996
1334.16	-7.0596
1334.43	-2.83922
1334.71	6.62999
1334.98	7.69802
1335.25	3.5206
1335.52	-3.80182
1335.79	-1.67907
1336.07	4.63955
1336.34	3.61576
1336.61	-0.552452
1336.88	1.57231
1337.15	-2.5921
1337.43	-2.5613
1337.7	4.80735
1337.97	-0.403519
1338.24	1.71369
1338.51	0.688187
1338.78	-1.37872
1339.06	0.742748
1339.33	-2.36807
1339.6	4.99726
1339.87	5.03755
1340.14	-4.34546
1340.42	-0.11718
1340.69	2.01779
1340.96	-1.08372
1341.23	3.14237
1341.5	-2.05825
1341.77	1.11736
1342.04	2.19592
1342.32	4.31797
1342.59	1.20271
1342.86	2.27108
1343.13	3.33926
1343.4	3.36929
1343.67	3.40361
1343.95	3.44083
1344.22	0.342316
1344.49	-1.70855
1344.76	1.46881
1345.03	-1.63446
1345.3	1.53236
1345.58	3.64906
1345.85	3.66841
1346.12	3.69208
1346.39	5.79894
1346.66	0.586071
1346.93	2.69373
1347.2	-1.45805
1347.47	3.77859
1347.75	-5.58265
1348.02	4.87267
1348.29	1.77825
1348.56	1.81393
1348.83	3.93499
1349.1	6.05017
1349.37	-2.25518
1349.65	4.02452
1349.92	11.3442
1350.19	6.16667
1350.46	8.27876
1350.73	4.1445
1351	-1.03253
1351.27	3.15581
1351.54	5.26797
1351.81	4.25334
1352.09	6.37056
1352.36	-6.06591
1352.63	1.26291
1352.9	4.43978
1353.17	5.54326
1353.44	1.43426
1353.71	11.9459
1353.98	1.63205
1354.25	2.65786
1354.53	6.76568
1354.8	6.73968
1355.07	-2.56057
1355.34	10.9965
1355.61	2.705
1355.88	7.93007
1356.15	5.91942
1356.42	5.96868
1356.69	7.03722
1356.96	13.3068
1357.24	-0.157173
1357.51	-2.19583
1357.78	12.3781
1358.05	6.18195
1358.32	10.3672
1358.59	4.1719
1358.86	3.168
1359.13	7.34972
1359.4	13.6051
1359.67	13.6395
1359.94	6.41613
1360.22	9.5542
1360.49	10.6152
1360.76	6.49615
1361.03	5.49305
1361.3	4.49731
1361.57	13.8643
1361.84	3.54903
1362.11	11.877
1362.38	9.84286
1362.65	12.9874
1362.92	11.9907
1363.19	22.3879
1363.46	13.12
1363.73	29.7485
1364	16.341
1364.28	22.6119
1364.55	19.5496
1364.82	19.5906
1365.09	16.5215
1365.36	15.5188
1365.63	21.7604
1365.9	12.4723
1366.17	8.36341
1366.44	14.6024
1366.71	15.6659
1366.98	16.7251
1367.25	12.611
1367.52	22.9821
1367.79	23.021
1368.06	19.9781
1368.33	35.5359
1368.6	59.3642
1368.87	80.0943
1369.15	68.7775
1369.41	52.2923
1369.68	32.7013
1369.95	30.67
1370.23	18.3021
1370.5	19.3745
1370.77	15.2683
1371.04	16.3396
1371.31	19.4726
1371.58	20.5314
1371.85	21.5851
1372.12	16.4413
1372.39	24.7137
1372.66	19.5763
1372.93	28.8829
1373.2	16.546
1373.47	23.799
1373.74	21.7753
1374.01	30.0589
1374.28	22.8869
1374.55	23.9597
1374.82	26.063
1375.09	16.8332
1375.36	22.0223
1375.63	31.3442
1375.9	25.2224
1376.17	23.2083
1376.44	35.6243
1376.71	30.4991
1376.98	32.5856
1377.25	28.4865
1377.52	33.6444
1377.79	32.6753
1378.06	27.6
1378.33	29.7417
1378.6	42.1966
1378.87	30.9601
1379.14	37.2097
1379.41	49.6269
1379.68	33.1681
1379.95	47.634
1380.22	45.5999
1380.49	48.6952
1380.76	47.6301
1381.03	49.6886
1381.3	54.8399
1381.57	53.8784
1381.84	58.0121
1382.11	62.1193
1382.38	69.3007
1382.65	88.808
1382.92	80.5922
1383.19	95.9808
1383.46	112.401
1383.73	141.116
1384	148.308
1384.27	181.135
1384.54	228.353
1384.81	307.379
1385.08	402.868
1385.34	561.018
1385.61	803.493
1385.88	1221.55
1386.15	1822.51
1386.42	2536.46
1386.69	3149.17
1386.96	3221.43
1387.23	2598.99
1387.5	1764.58
1387.77	1090.18
1388.04	661.857
1388.31	434.6
1388.58	318.574
1388.85	234.142
1389.12	188.37
1389.39	150.583
1389.66	122.926
1389.93	106.566
1390.2	87.0562
1390.46	83.9176
1390.73	81.8658
1391	75.7582
1391.27	68.5799
1391.54	59.3946
1391.81	56.3593
1392.08	46.138
1392.35	48.2096
1392.62	49.2601
1392.89	46.2203
1393.16	38.0659
1393.43	37.0807
1393.7	34.0502
1393.97	34.0914
1394.23	34.1332
1394.5	35.1996
1394.77	42.406
1395.04	30.1728
1395.31	31.2544
1395.58	24.1536
1395.85	30.3534
1396.12	30.4067
1396.39	40.6894
1396.66	34.5892
1396.93	25.4172
1397.2	25.4563
1397.46	26.5134
1397.73	28.5936
1398	28.6349
1398.27	20.5004
1398.54	21.5773
1398.81	30.8423
1399.08	23.7354
1399.35	25.8347
1399.62	26.9205
1399.89	31.0716
1400.16	23.964
1400.42	22.9887
1400.69	30.2136
1400.96	26.1878
1401.23	28.2942
1401.5	29.3637
1401.77	30.4466
1402.04	20.2532
1402.31	27.498
1402.58	30.6673
1402.84	25.6382
1403.11	29.826
1403.38	29.901
1403.65	36.1218
1403.92	34.1181
1404.19	37.228
1404.46	36.2006
1404.73	40.3663
1404.99	45.5361
1405.26	32.2375
1405.53	48.6812
1405.8	52.8128
1406.07	63.0956
1406.34	61.0752
1406.61	77.512
1406.87	84.7244
1407.14	98.104
1407.41	102.264
1407.68	128.979
1407.95	136.215
1408.22	156.78
1408.49	155.815
1408.76	143.571
1409.02	123.123
1409.29	110.881
1409.56	92.48
1409.83	70.9987
1410.1	62.8467
1410.37	52.6368
1410.63	40.3566
1410.9	31.1512
1411.17	34.2486
1411.44	30.1771
1411.71	29.1862
1411.98	18.978
1412.25	22.0965
1412.51	23.1786
1412.78	15.048
1413.05	16.1618
1413.32	18.3425
1413.59	22.5416
1413.86	15.3461
1414.12	14.2814
1414.39	17.4192
1414.66	16.4855
1414.93	11.43
1415.2	15.5795
1415.47	11.5219
1415.73	8.48909
1416	5.45728
1416.27	12.6963
1416.54	10.6947
1416.81	6.63942
1417.07	9.77306
1417.34	13.9358
1417.61	7.82544
1417.88	14.0431
1418.15	12.0378
1418.42	6.94759
1418.68	6.996
1418.95	7.04502
1419.22	7.09169
1419.49	3.02812
1419.76	4.09591
1420.02	4.13197
1420.29	6.2214
1420.56	4.20292
1420.83	9.37178
1421.1	13.5115
1421.36	13.5454
1421.63	7.42736
1421.9	-2.78826
1422.17	2.40284
1422.44	7.60094
1422.7	8.6926
1422.97	11.8529
1423.24	12.9789
1423.51	6.90039
1423.77	8.8683
1424.04	5.71732
1424.31	9.87874
1424.58	9.86738
1424.85	9.91249
1425.11	10.9987
1425.38	8.00829
1425.65	10.1114
1425.92	9.12231
1426.19	10.2124
1426.45	6.14944
1426.72	6.18396
1426.99	3.13786
1427.26	2.14291
1427.52	5.24666
1427.79	8.34232
1428.06	11.4399
1428.33	-0.812733
1428.59	7.41884
1428.86	9.51106
1429.13	9.55834
1429.4	4.48644
1429.67	4.53621
1429.93	0.490349
1430.2	2.59307
1430.47	3.67486
1430.74	3.72892
1431	1.73719
1431.27	6.93101
1431.54	1.86174
1431.81	0.887009
1432.07	5.03544
1432.34	1.99021
1432.61	10.2288
1432.87	2.05619
1433.14	6.18596
1433.41	0.0575562
1433.68	5.20332
1433.95	6.24945
1434.21	1.15821
1434.48	8.3632
1434.75	-2.83772
1435.01	8.48485
1435.28	1.35628
1435.55	3.4478
1435.82	-1.63527
1436.08	-0.570839
1436.35	6.64007
1436.62	3.60419
1436.89	3.64118
1437.15	-1.4443
1437.42	2.69012
1437.69	-0.342659
1437.95	1.74153
1438.22	6.9006
1438.49	0.799442
1438.76	5.96915
1439.02	7.03914
1439.29	5.03281
1439.56	0.977974
1439.82	1.0258
1440.09	10.3016
1440.36	0.105545
1440.63	0.151527
1440.89	3.27104
1441.16	-0.789936
1441.43	5.40565
1441.69	-0.711029
1441.96	3.42259
1442.23	4.48319
1442.49	1.45689
1442.76	4.57426
1443.03	5.64944
1443.3	1.58018
1443.56	2.63695
1443.83	2.66922
1444.1	0.653202
1444.36	0.690472
1444.63	2.78284
1444.9	7.96286
1445.16	1.86038
1445.43	8.07047
1445.7	5.02695
1445.97	4.03481
1446.23	3.0432
1446.5	8.20627
1446.77	5.16351
1447.03	0.0698433
1447.3	1.1298
1447.57	2.18869
1447.83	6.32167
1448.1	5.32907
1448.37	4.34122
1448.63	4.38767
1448.9	0.333858
1449.17	3.45102
1449.43	-1.64064
1449.7	0.444263
1449.97	0.475479
1450.23	4.60622
1450.5	3.60995
1450.77	1.59253
1451.03	6.75075
1451.3	-5.51546
1451.57	1.69141
1451.83	5.82208
1452.1	-2.34323
1452.37	1.78799
1452.63	5.92025
1452.9	1.8589
1453.17	4.97089
1453.43	1.93856
1453.7	-0.0708694
1453.97	4.06448
1454.23	8.19577
1454.5	6.17899
1454.77	0.0663605
1455.03	1.12648
1455.3	6.28387
1455.56	5.29103
1455.83	-2.87018
1456.1	-3.85273
1456.36	-0.739269
1456.63	-2.75451
1456.9	1.3761
1457.16	3.45236
1457.43	-2.668
1457.7	-0.587582
1457.96	-0.556133
1458.23	5.62246
1458.49	3.60807
1458.76	0.569965
1459.03	3.67976
1459.29	0.642448
1459.56	2.72677
1459.82	0.712181
1460.09	4.84221
1460.36	-0.250019
1460.62	-3.29312
1460.89	-1.21437
1461.16	2.91113
1461.42	-3.2066
1461.69	0.917053
1461.95	-2.12809
1462.22	-2.10231
1462.49	2.01676
1462.75	-1.02975
1463.02	3.08605
1463.28	2.08488
1463.55	3.12889
1463.82	4.17365
1464.08	3.18162
1464.35	4.25061
1464.61	1.23468
1464.88	1.28217
1465.15	1.33469
1465.41	0.30909
1465.68	0.262196
1465.94	1.27891
1466.21	-4.81715
1466.48	0.329636
1466.74	-6.78843
1467.01	-2.69226
1467.27	-2.66682
1467.54	-5.693
1467.8	-0.563885
1468.07	-5.63676
1468.34	1.53248
1468.6	-1.49818
1468.87	1.59118
1469.13	6.71863
1469.4	-0.395424
1469.67	-2.41018
1469.93	-0.348911
1470.2	-3.38712
1470.46	-0.307468
1470.73	-4.35979
1470.99	-2.29705
1471.26	-1.25188
1471.53	-0.209621
1471.79	-2.22556
1472.06	1.87139
1472.32	-2.17604
1472.59	-3.16705
1472.85	1.95172
1473.12	2.9972
1473.39	-1.05023
1473.65	1.00816
1473.92	3.06572
1474.18	-6.07098
1474.45	-2.99253
1474.71	3.14122
1474.98	-4.96881
1475.24	2.18611
1475.51	0.178703
1475.78	0.204979
1476.04	4.29951
1476.31	3.30317
1476.57	3.32607
1476.84	1.31454
1477.1	3.36927
1477.37	-5.7648
1477.63	2.39505
1477.9	4.4542
1478.16	3.46278
1478.43	-2.61676
1478.69	5.53522
1478.96	-2.57714
1479.22	-0.523926
1479.49	-2.53703
1479.76	-2.51826
1480.02	1.56244
1480.29	-2.48293
1480.55	-0.440636
1480.82	-0.426697
1481.08	4.66446
1481.35	2.65649
1481.61	-4.42678
1481.88	-3.38359
1482.14	2.73592
1482.41	4.79879
1482.67	-1.25745
1482.94	0.804207
1483.2	3.87468
1483.47	0.858662
1483.73	-4.19129
1484	-3.15124
1484.26	-2.11286
1484.53	-2.10419
1484.79	-3.11604
1485.06	0.921463
1485.32	-5.18309
1485.59	-1.13017
1485.85	1.8955
1486.12	-3.0479
1486.38	-5.04046
1486.65	-3.98967
1486.91	1.05861
1487.18	4.14289
1487.44	-6.97446
1487.71	4.18283
1487.97	0.143921
1488.24	0.161171
1488.5	1.18997
1488.77	-0.821156
1489.03	4.25246
1489.3	4.26666
1489.56	-0.774944
1489.83	1.26747
1490.09	-3.7715
1490.36	-1.72631
1490.62	3.35342
1490.89	-4.72234
1491.15	-2.68491
1491.42	1.37401
1491.68	0.38065
1491.95	0.400398
1492.21	4.46572
1492.48	0.444862
1492.74	-1.55724
1493	-0.527294
1493.27	-3.54035
1493.53	-2.50851
1493.8	5.59662
1494.06	-5.5034
1494.33	-3.46058
1494.59	1.61696
1494.86	3.66296
1495.12	0.648651
1495.39	2.68405
1495.65	-1.35023
1495.92	-5.38459
1496.18	-4.36464
1496.45	5.74557
1496.71	0.711334
1496.97	0.726067
1497.24	-2.28767
1497.5	3.78722
1497.77	3.80629
1498.03	2.81396
1498.3	-1.20469
1498.56	1.84244
1498.82	3.88089
1499.09	-0.135685
1499.35	-0.115078
1499.62	-1.10307
1499.88	-6.12841
1500.15	-1.05917
1500.41	-2.04883
1500.68	4.02681
1500.94	-2.01363
1501.2	2.04142
1501.47	1.04571
1501.73	-4.9994
1502	-0.946934
1502.26	-1.93933
1502.52	2.11325
1502.79	1.118
1503.05	-0.890579
1503.32	2.14512
1503.58	5.18314
1503.85	3.17575
1504.11	-3.86527
1504.37	-2.83634
1504.64	-2.81762
1504.9	2.24176
1505.17	3.26517
1505.43	2.26927
1505.7	-1.75297
1505.96	0.268738
1506.22	0.271244
1506.49	3.30734
1506.75	2.31496
1507.02	-1.69687
1507.28	6.38552
1507.54	-1.65786
1507.81	-5.671
1508.07	2.40617
1508.34	7.45719
1508.6	-1.59777
1508.86	-0.573811
1509.13	4.48121
1509.39	3.48969
1509.66	2.49683
1509.92	1.50432
1510.18	-1.49937
1510.45	4.56506
1510.71	1.54894
1510.98	-3.48111
1511.24	-1.46016
1511.5	4.58572
1511.77	-2.46274
1512.03	-5.48534
1512.29	6.57756
1512.56	0.539684
1512.82	-1.47167
1513.08	-3.47587
1513.35	1.55068
1513.61	-3.46252
1513.88	0.563793
1514.14	-4.43338
1514.4	-1.39295
1514.67	0.633453
1514.93	3.65592
1515.2	4.6641
1515.46	-1.35771
1515.72	1.6573
1515.99	-2.35513
1516.25	-1.34972
1516.51	-2.34729
1516.78	-0.332199
1517.04	1.68308
1517.3	4.70129
1517.57	-1.30276
1517.83	2.72112
1518.09	1.73407
1518.36	5.76558
1518.62	2.77154
1518.88	0.78091
1519.15	0.795586
1519.41	2.81757
1519.67	-3.18649
1519.94	-5.17924
1520.2	1.85493
1520.47	2.86642
1520.73	-4.14648
1520.99	2.88951
1521.26	-2.1111
1521.52	0.913864
1521.78	3.93705
1522.05	1.94009
1522.31	-4.07192
1522.57	-0.0517006
1522.84	-0.0450401
1523.1	-6.05567
1523.36	-1.03596
1523.62	4.9788
1523.89	-1.04004
1524.15	3.97016
1524.41	2.97035
1524.68	-0.0305405
1524.94	1.9766
1525.2	1.99176
1525.47	5.00857
1525.73	4.01899
1525.99	2.03218
1526.26	0.0461769
1526.52	3.07286
1526.78	-0.917809
1527.05	3.10471
1527.31	-4.90529
1527.57	-0.891273
1527.84	1.12047
1528.1	0.124729
1528.36	2.13527
1528.63	0.136272
1528.89	0.141624
1529.15	-2.8575
1529.41	2.15828
1529.68	2.16685
1529.94	2.17336
1530.2	2.17607
1530.47	1.182
1530.73	3.19747
1530.99	1.21148
1531.25	1.22828
1531.52	1.24309
1531.78	-1.75353
1532.04	1.25869
1532.31	5.27632
1532.57	1.27156
1532.83	-0.719425
1533.09	-1.7034
1533.36	3.33096
1533.62	-0.659679
1533.88	5.37224
1534.15	-0.635204
1534.41	1.37881
1534.67	1.38451
1534.94	2.39237
1535.2	1.39296
1535.46	2.40004
1535.72	3.40268
1535.99	5.39406
1536.25	3.38474
1536.51	-1.62518
1536.77	4.37743
1537.04	0.365406
1537.3	2.36129
1537.56	2.36293
1537.82	-1.64019
1538.09	2.36827
1538.35	-1.63314
1538.61	3.36117
1538.87	1.36458
1539.14	1.36754
1539.4	4.38446
1539.66	2.41439
1539.92	-0.552956
1540.19	1.47554
1540.45	3.5027
1540.71	-2.48771
1540.97	2.54203
1541.24	-2.46144
1541.5	0.537521
1541.76	-2.46538
1542.02	-0.464619
1542.29	-2.47161
1542.55	0.530384
1542.81	1.52818
1543.07	8.533
1543.34	-2.48181
1543.6	-1.48406
1543.86	1.51097
1544.12	-2.49683
1544.39	-6.49
1544.65	2.51863
1544.91	-1.46897
1545.17	-1.45261
1545.43	-1.43937
1545.7	-1.41965
1545.96	-0.405132
1546.22	-1.39679
1546.48	-0.385921
1546.74	-5.39145
1547.01	-4.38319
1547.27	2.63831
1547.53	0.644135
1547.79	2.65711
1548.06	0.649364
1548.32	2.63688
1548.58	3.64273
1548.84	-1.35737
1549.1	-0.340523
1549.37	3.63264
1549.63	3.59457
1549.89	-1.40778
1550.15	1.61693
1550.42	1.66202
1550.68	-0.27977
1550.94	2.77645
1551.2	-0.194283
1551.46	4.80463
1551.73	1.8005
1551.99	2.8004
1552.25	4.79884
1552.51	1.80946
1552.77	0.824867
1553.03	-1.18504
1553.3	-0.187752
1553.56	4.80524
1553.82	-0.213696
1554.08	0.789753
1554.34	7.80557
1554.61	-2.22984
1554.87	-2.23833
1555.13	4.76584
1555.39	5.76553
1555.65	6.76759
1555.91	5.76875
1556.18	6.77641
1556.44	7.7817
1556.7	0.766342
1556.96	-1.23352
1557.22	-2.22997
1557.48	-1.2233
1557.75	2.78735
1558.01	-0.217339
1558.27	-3.22615
1558.53	-0.230553
1558.79	0.763783
1559.06	5.75673
1559.32	-0.25613
1559.58	2.73675
1559.84	0.730652
1560.1	2.72573
1560.36	0.723232
1560.63	0.721523
1560.89	2.71948
1561.15	1.71994
1561.41	0.722416
1561.67	0.727192
1561.93	-2.26247
1562.19	0.748764
1562.46	3.76254
1562.72	-3.2362
1562.98	-4.23608
1563.24	-4.2369
1563.5	-2.23335
1563.76	0.764912
1564.02	-4.23526
1564.29	0.77948
1564.55	1.79657
1564.81	-0.198521
1565.07	3.8033
1565.33	4.78182
1565.59	1.71412
1565.85	-0.371143
1566.11	3.56255
1566.38	0.736046
1566.64	-4.21688
1566.9	3.76353
1567.16	-4.25332
1567.42	0.773327
1567.68	-1.19277
1567.94	-2.20037
1568.2	1.77458
1568.47	0.780594
1568.73	3.78665
1568.99	-2.20926
1569.25	0.787907
1569.51	-7.22129
1569.77	2.76598
1570.03	-0.230793
1570.29	3.77047
1570.55	7.76975
1570.82	2.774
1571.08	0.775101
1571.34	-4.22275
1571.6	1.77042
1571.86	1.76483
1572.12	0.75946
1572.38	5.75324
1572.64	-0.244396
1572.9	-1.24979
1573.17	-0.256271
1573.43	1.73543
1573.69	4.72369
1573.95	-8.25592
1574.21	-1.26891
1574.47	-4.25677
1574.73	2.74003
1574.99	-2.24355
1575.25	-0.236706
1575.51	-6.22259
1575.78	3.77651
1576.04	0.780338
1576.3	-0.221729
1576.56	-1.22176
1576.82	-3.2243
1577.08	-1.23741
1577.34	-1.25145
1577.6	1.72974
1577.86	3.71155
1578.12	0.705868
1578.38	-5.28881
1578.64	-1.30708
1578.9	-2.3065
1579.17	-4.30104
1579.43	1.67983
1579.69	0.682858
1579.95	-2.30635
1580.21	-0.307472
1580.47	7.67235
1580.73	0.692142
1580.99	4.67874
1581.25	-6.29439
1581.51	-1.31538
1581.77	-0.323986
1582.03	1.66105
1582.29	1.65202
1582.55	3.64101
1582.81	-1.34373
1583.07	-1.34732
1583.33	-2.34629
1583.59	0.640015
1583.85	-6.33406
1584.11	-1.35836
1584.38	4.61629
1584.64	0.634945
1584.9	3.62479
1585.16	-1.35513
1585.42	-0.360367
1585.68	3.6208
1585.94	-0.365414
1586.2	-2.36192
1586.46	2.60738
1586.72	-0.38998
1586.98	1.59283
1587.24	1.58648
1587.5	-4.38917
1587.76	-0.413342
1588.02	3.56328
1588.28	-3.40214
1588.54	4.55941
1588.8	-3.39803
1589.06	-1.40381
1589.32	-1.40071
1589.58	-4.38399
1589.84	0.595718
1590.1	-2.39123
1590.36	-0.401478
1590.62	1.59148
1590.88	0.598774
1591.14	-5.37464
1591.4	2.59003
1591.66	1.59237
1591.92	-1.39922
1592.18	-1.40449
1592.44	5.55433
1592.7	3.5488
1592.96	-1.4371
1593.22	1.54012
1593.48	-1.45905
1593.74	1.50712
1594	-0.497936
1594.26	4.45776
1594.52	-1.50908
1594.78	0.4757
1595.04	-1.50826
1595.3	4.45858
1595.56	3.46874
1595.82	-1.50147
1596.08	4.43984
1596.34	0.464241
1596.6	1.45556
1596.86	-0.532406
1597.12	-2.51941
1597.38	4.43447
1597.64	3.44285
1597.9	1.45745
1598.16	-0.532391
1598.42	2.44228
1598.68	0.446793
1598.94	0.434574
1599.2	2.40875
1599.46	-2.56326
1599.72	-0.586502
1599.98	7.34266
1600.24	-0.603077
1600.5	-1.60302
1600.76	2.35461
1601.02	-1.62292
1601.28	0.346092
1601.54	3.30381
1601.8	1.30756
1602.06	0.304775
1602.32	4.25471
1602.58	2.26488
1602.84	-1.7042
1603.1	2.24236
1603.36	2.23137
1603.62	-1.73399
1603.88	0.236927
1604.14	3.1978
1604.4	5.17207
1604.66	1.21561
1604.92	3.19203
1605.17	6.15654
1605.43	4.17766
1605.69	2.19929
1605.95	-0.766453
1606.21	-1.75348
1606.47	-1.75107
1606.73	5.17623
1606.99	6.16778
1607.25	3.19378
1607.51	3.20393
1607.77	2.188
1608.03	2.16517
1608.29	-4.48987
1608.55	2.07292
1608.81	2.12577
1609.07	0.231861
1609.32	1.16682
1609.58	-0.546967
1609.84	1.89928
1610.1	-0.578583
1610.36	-4.12662
1610.62	-2.39716
1610.88	-0.239368
1611.14	-0.312416
1611.4	5.50386
1611.66	1.1348
1611.92	-1.19221
1612.18	-0.162739
1612.44	0.280434
1612.69	2.58731
1612.95	-1.30591
1613.21	2.87448
1613.47	2.12172
1613.73	5.46509
1613.99	-0.281437
1614.25	1.55341
1614.51	-3.00008
1614.77	-3.41474
1615.03	-2.88377
1615.29	0.821404
1615.54	1.11661
1615.8	-0.172951
1616.06	-0.164501
1616.32	-0.83815
1616.58	3.22996
1616.84	2.25705
1617.1	0.149483
1617.36	1.35199
1617.62	1.68424
1617.88	-2.90237
1618.13	0.589279
1618.39	1.11714
1618.65	2.17581
1618.91	-1.19286
1619.17	1.5023
1619.43	0.842499
1619.69	2.31427
1619.95	0.41024
1620.2	1.6747
1620.46	3.08381
1620.72	2.25066
1620.98	0.483288
1621.24	2.01626
1621.5	-2.64447
1621.76	1.49939
1622.02	2.06369
1622.27	1.16317
1622.53	-2.20383
1622.79	1.03748
1623.05	0.935047
1623.31	2.35054
1623.57	2.15456
1623.83	0.083004
1624.09	-1.57701
1624.34	1.52253
1624.6	0.165825
1624.86	1.27625
1625.12	2.48026
1625.38	2.12345
1625.64	2.6718
1625.9	3.2106
1626.15	-0.369202
1626.41	1.27621
1626.67	2.42706
1626.93	1.41689
1627.19	1.77874
1627.45	2.29819
1627.7	1.18386
1627.96	0.887894
1628.22	0.788338
1628.48	-0.582088
1628.74	0.447788
1629	0.724957
1629.26	1.14323
1629.51	-2.12111
1629.77	0.277256
1630.03	-1.96422
1630.29	-2.97931
1630.55	0.7411
1630.81	1.7485
1631.06	-0.46841
1631.32	-0.926239
1631.53	6.0706
1631.79	0.163631
1632.05	2.13855
1632.31	-1.79945
1632.57	1.15335
1632.84	1.16095
1633.1	2.16272
1633.36	4.11977
1633.62	-3.78483
1633.88	2.12164
1634.14	1.13921
1634.4	0.157124
1634.66	-3.78576
1634.93	2.12721
1635.19	1.13905
1635.45	1.13575
1635.71	-0.839481
1635.97	5.06899
1636.23	5.06313
1636.49	-0.855312
1636.75	-0.861305
1637.02	-2.83773
1637.28	0.110092
1637.54	5.02564
1637.8	0.0970802
1638.06	3.0478
1638.32	2.0581
1638.58	3.03697
1638.84	4.01668
1639.1	3.03091
1639.37	4.01355
1639.63	-0.910404
1639.89	-0.912453
1640.15	-0.91481
1640.41	1.05079
1640.67	1.05005
1640.93	0.0702858
1641.19	2.04239
1641.46	3.02673
1641.72	-1.90081
1641.98	-2.89055
1642.24	1.04343
1642.5	2.02429
1642.76	4.97419
1643.02	3.00209
1643.28	2.0148
1643.54	1.02797
1643.8	5.94674
1644.06	3.97345
1644.33	0.0313034
1644.59	1.99225
1644.85	1.00209
1645.11	-2.93579
1645.37	-2.93507
1645.63	0.0193558
1645.89	0.0202904
1646.15	-1.94904
1646.41	-4.90579
1646.67	0.00860977
1646.93	-0.980293
1647.19	-3.93514
1647.46	-0.988895
1647.72	2.94004
1647.98	-0.0150719
1648.24	-1.00072
1648.5	0.965923
1648.76	4.90497
1649.02	2.94333
1649.28	2.96019
1649.54	-4.91032
1649.8	-0.9772
1650.06	1.97066
1650.32	6.89061
1650.58	2.96276
1650.85	5.92479
1651.11	-5.88986
1651.37	0.025528
1651.63	-0.956863
1651.89	1.01449
1652.15	3.96968
1652.41	1.01209
1652.67	1.9977
1652.93	-0.963371
1653.19	0.0166702
1653.45	-4.91262
1653.71	2.96815
1653.97	-4.91375
1654.23	1.98565
1654.49	-3.92606
1654.75	-1.95505
1655.01	-1.95409
1655.27	0.0201797
1655.53	1.01167
1655.8	-1.93808
1656.06	-0.941326
1656.32	1.03904
1656.57	2.03033
1656.84	-0.928822
1657.1	4.00726
1657.36	2.03094
1657.62	3.0138
1657.88	2.02181
1658.14	3.0053
1658.4	-1.93238
1658.66	-0.950134
1658.92	2.00389
1659.18	3.9705
1659.44	1.00517
1659.7	0.999126
1659.96	-5.90873
1660.22	-0.00116348
1660.48	0.986515
1660.74	-0.981884
1661	2.9668
1661.26	2.97247
1661.52	0.0189743
1661.78	4.95863
1662.04	-0.959732
1662.3	2.9895
1662.56	-1.97451
1662.82	3.02366
1663.08	1.0832
1663.34	-3.87849
1663.6	5.99997
1663.86	-3.8909
1664.12	2.94911
1664.38	-2.93505
1664.64	-0.953712
1664.9	-0.951515
1665.16	2.02768
1665.42	0.0581055
1665.68	-0.965767
1665.94	-1.98283
1666.2	1.0636
1666.46	-1.89607
1666.72	6.01003
1666.98	-3.91943
1667.24	-2.04327
1667.5	-1.95102
1667.76	-1.9584
1668.02	0.00949097
1668.28	-0.981182
1668.54	-6.90643
1668.8	-1.97337
1669.06	-0.972542
1669.32	1.02071
1669.58	-0.951366
1669.84	0.036705
1670.1	-1.93801
1670.36	0.0337296
1670.62	-3.91738
1670.88	1.03867
1671.14	1.04993
1671.4	-1.91927
1671.66	-3.89881
1671.92	1.0413
1672.18	2.03094
1672.44	-3.89706
1672.69	0.0577431
1672.95	-0.931149
1673.21	-1.92002
1673.47	2.03487
1673.73	2.03623
1673.99	2.03852
1674.25	1.05336
1674.51	0.0690536
1674.77	-1.90498
1675.03	-1.90098
1675.29	-2.88443
1675.55	0.0887833
1675.81	0.0917091
1676.07	0.0921555
1676.33	2.07085
1676.59	-2.87622
1676.85	-3.86433
1677.11	-1.88398
1677.37	0.095047
1677.63	0.0932007
1677.89	2.06941
1678.14	-0.903915
1678.4	-0.910141
1678.66	5.01719
1678.92	-2.90064
1679.18	-1.91601
1679.44	1.04614
1679.7	-0.933666
1679.96	0.0516167
1680.22	4.99006
1680.48	-3.907
1680.74	0.0428276
1681	1.02772
1681.26	-4.90294
1681.52	-3.91613
1681.78	-1.94056
1682.03	-1.94054
1682.29	3.98719
1682.55	-3.91551
1682.81	-0.950687
1683.07	2.99995
1683.33	-3.91588
1683.59	0.0356178
1683.85	-1.93976
1684.11	0.0354805
1684.37	-2.92959
1684.63	2.992
1684.89	2.98939
1685.14	2.00049
1685.4	1.99981
1685.66	-0.962727
1685.92	-1.94981
1686.18	1.01336
1686.44	-0.96027
1686.7	-1.9446
1686.96	2.01355
1687.22	-3.9095
1687.48	3.99506
1687.73	-4.89768
1687.99	1.02597
1688.25	2.99791
1688.51	3.98267
1688.77	1.01706
1689.03	2.98726
1689.29	0.019043
1689.55	-1.95967
1689.81	-0.977749
1690.06	2.96276
1690.32	-0.989841
1690.58	-1.97736
1690.84	4.93604
1691.1	-0.977753
1691.36	-0.973999
1691.62	-0.971451
1691.88	0.0197487
1692.13	-2.93723
1692.39	0.0245972
1692.65	2.98436
1692.91	0.0196838
1693.17	1.0008
1693.43	0.00761414
1693.69	0.985641
1693.95	-2.96679
1694.2	-0.0151749
1694.46	1.95007
1694.72	1.94371
1694.98	0.954548
1695.24	-3.97001
1695.5	3.91348
1695.76	-0.0238991
1696.01	-1.99125
1696.27	2.93841
1696.53	0.97377
1696.79	1.96367
1697.05	-0.991947
1697.31	-0.00840378
1697.57	2.94227
1697.82	-0.0207558
1698.08	3.91051
1698.34	1.93485
1698.6	1.92998
1698.86	-2.01126
1699.12	-2.01425
1699.38	-0.0472946
1699.63	0.937103
1699.89	-2.01167
1700.15	0.941971
1700.41	-2.00819
1700.67	1.9228
1700.92	-1.02879
1701.18	-2.01261
1701.44	1.92185
1701.7	1.92014
1701.96	-4.9684
1702.22	-0.056282
1702.47	-1.04387
1702.73	-0.0659103
1702.99	1.8949
1703.25	-0.0709496
1703.51	-2.03561
1703.77	1.89415
1704.02	-1.05512
1704.28	2.87417
1704.54	-0.0684738
1704.8	-1.04508
1705.06	-0.0597839
1705.32	-1.0424
1705.57	-0.0602493
1705.83	-2.02376
1706.09	-0.0569534
1706.35	-1.0429
1706.61	-2.03032
1706.86	7.78378
1707.12	2.86652
1707.38	-3.02963
1707.64	0.890659
1707.9	-2.05978
1708.16	-1.08723
1708.41	2.82586
1708.67	-1.10411
1708.93	-0.134346
1709.19	-0.143291
1709.44	-0.14904
1709.7	-1.13116
1709.96	-0.152653
1710.22	4.74336
1710.48	-0.148811
1710.73	0.833099
1710.99	-0.141239
1711.25	-4.05128
1711.51	-1.10865
1711.77	-3.06267
1712.02	0.85947
1712.28	2.82094
1712.54	-0.119236
1712.8	4.76904
1713.06	1.81927
1713.31	-0.150394
1713.57	-4.07316
1713.83	-2.1266
1714.09	-1.15911
1714.34	-7.02488
1714.6	1.76562
1714.86	0.78767
1715.12	-1.16563
1715.38	1.76601
1715.63	2.75098
1715.89	2.76104
1716.15	1.78585
1716.41	1.7851
1716.66	-1.14838
1716.92	-0.176395
1717.18	3.72195
1717.44	4.68718
1717.69	4.67337
1717.95	3.68163
1718.21	2.69304
1718.47	-1.21576
1718.72	6.56792
1718.98	-0.255096
1719.24	-0.256939
1719.5	3.63924
1719.75	4.61477
1720.01	4.61492
1720.27	3.64632
1720.53	-2.19193
1720.78	1.70173
1721.04	2.67118
1721.3	2.66379
1721.56	4.60444
1721.81	2.65373
1722.07	2.64795
1722.33	2.64145
1722.59	-1.25351
1722.84	3.59973
1723.1	2.62187
1723.36	-2.24006
1723.62	3.58413
1723.87	2.61124
1724.13	3.58438
1724.39	-2.24206
1724.64	5.52619
1724.9	2.61013
1725.16	3.57373
1725.42	8.41244
1725.67	3.55129
1725.93	1.60112
1726.19	1.59514
1726.45	1.59352
1726.7	-4.21608
1726.96	5.4748
1727.22	2.56493
1727.47	2.55483
1727.73	2.55654
1727.99	3.53649
1728.24	0.630642
1728.5	6.4389
1728.76	-2.28703
1729.02	0.573555
1729.27	-1.40631
1729.53	1.47277
1729.79	1.49526
1730.05	5.37939
1730.3	3.4647
1730.56	3.44509
1730.82	1.50709
1731.07	2.47176
1731.33	5.41385
1731.59	0.586987
1731.84	2.5233
1732.1	3.49171
1732.36	1.55954
1732.61	2.52524
1732.87	4.45655
1733.13	4.45365
1733.39	3.48263
1733.64	6.37094
1733.9	9.2536
1734.16	2.48544
1734.41	6.33527
1734.67	6.32579
1734.93	6.31592
1735.18	-5.25637
1735.44	3.40663
1735.7	3.39921
1735.95	1.469
1736.21	4.35437
1736.47	-1.42125
1736.72	1.46562
1736.98	6.27536
1737.24	4.34865
1737.49	5.30811
1737.75	3.3821
1738.01	3.38041
1738.26	0.49221
1738.52	5.29499
1738.78	2.40631
1739.03	5.28478
1739.29	5.27858
1739.55	3.34953
1739.8	2.37874
1740.06	0.446449
1740.32	-0.524078
1740.57	3.30223
1740.83	5.21102
1741.09	4.2463
1741.34	5.1991
1741.6	-1.51188
1741.86	3.27341
1742.11	-0.559864
1742.37	6.1421
1742.63	9.01513
1742.88	2.3134
1743.14	5.18452
1743.4	3.27082
1743.65	7.10155
1743.91	5.18651
1744.16	0.397408
1744.42	4.22154
1744.68	4.21908
1744.93	3.26303
1745.19	2.30954
1745.45	1.35674
1745.7	8.05546
1745.96	2.31764
1746.22	3.27267
1746.47	7.09315
1746.73	-1.51729
1746.98	-2.47922
1747.24	5.16004
1747.5	2.28692
1747.75	8.96631
1748.01	5.14091
1748.27	6.09428
1748.52	4.18742
1748.78	7.05478
1749.03	1.33193
1749.29	4.20147
1749.55	6.1185
1749.8	2.30828
1750.06	3.27353
1750.32	4.24035
1750.57	-0.525711
1750.83	3.30758
1751.08	4.26963
1751.34	8.10109
1751.6	4.28139
1751.85	0.456223
1752.11	3.31679
1752.36	1.3983
1752.62	-2.42683
1752.88	9.9837
1753.13	7.11313
1753.39	4.24398
1753.64	6.14876
1753.9	3.28292
1754.15	0.418365
1754.41	5.1831
1754.67	5.1779
1754.92	3.26844
1755.18	5.17319
1755.43	3.26571
1755.69	5.17049
1755.95	4.21445
1756.2	3.2571
1756.46	1.34658
1756.71	5.14946
1756.97	2.28475
1757.23	7.03469
1757.48	0.367199
1757.74	4.1712
1757.99	4.16991
1758.25	15.5892
1758.5	0.384045
1758.76	-0.561115
1759.02	6.10378
1759.27	8.01065
1759.53	5.15976
1759.78	8.97153
1760.04	3.26443
1760.3	9.92585
1760.55	5.16813
1760.81	5.16778
1761.06	9.92302
1761.32	10.8705
1761.57	6.11041
1761.83	8.95906
1762.08	8.95719
1762.34	8.00672
1762.6	6.10732
1762.85	10.8707
1763.11	6.12487
1763.36	8.03069
1763.62	8.03222
1763.87	6.13519
1764.13	8.04311
1764.38	4.24667
1764.64	5.20885
1764.89	9.98423
1765.15	8.09084
1765.4	11.907
1765.66	6.20285
1765.92	3.35273
1766.17	3.35732
1766.43	8.12107
1766.68	1.45874
1766.94	4.3152
1767.19	9.07542
1767.45	6.22239
1767.7	6.22245
1767.96	4.317
1768.21	8.12081
1768.47	10.9736
1768.73	7.16776
1768.98	10.9733
1769.24	4.30228
1769.49	8.08649
1769.75	6.16895
1770	4.25974
1770.26	14.7094
1770.51	9.97491
1770.77	7.13876
1771.02	9.0429
1771.28	8.09906
1771.53	9.06373
1771.79	8.13133
1772.04	10.0416
1772.3	9.09629
1772.55	11.9598
1772.81	4.36182
1773.06	11.031
1773.32	11.0396
1773.57	5.33788
1773.83	6.2969
1774.08	11.0633
1774.34	13.926
1774.59	8.21978
1774.85	9.17706
1775.1	9.1862
1775.36	13.002
1775.61	13.9659
1775.87	10.1787
1776.12	10.1931
1776.38	5.43541
1776.63	13.0668
1776.89	9.2547
1777.14	11.159
1777.4	7.34251
1777.65	10.2001
1777.91	5.43191
1778.16	10.1912
1778.42	4.47198
1778.67	6.37295
1778.93	5.41577
1779.18	7.31245
1779.44	9.20749
1779.69	6.34967
1779.95	12.0603
1780.2	3.51165
1780.46	10.1793
1780.71	5.42669
1780.97	2.57757
1781.22	5.44014
1781.47	5.44408
1781.73	9.25703
1781.98	8.31181
1782.24	3.55925
1782.49	6.42547
1782.75	4.53247
1783	6.44689
1783.26	5.50168
1783.51	2.64985
1783.77	7.42336
1784.02	4.57178
1784.28	3.62682
1784.53	7.45095
1784.79	2.69489
1785.04	5.56553
1785.29	2.70942
1785.55	7.48304
1785.8	6.52989
1786.06	4.6209
1786.31	5.57385
1786.57	8.43919
1786.82	2.72181
1787.08	4.6388
1787.33	4.64976
1787.58	5.61765
1787.84	0.860077
1788.09	4.70547
1788.35	7.60105
1788.6	7.6296
1788.86	-0.0083046
1789.11	6.70217
1789.37	7.67204
1789.62	7.69015
1789.87	4.8285
1790.13	3.87786
1790.38	5.8026
1790.64	1.97593
1790.89	6.77257
1791.15	1.98045
1791.4	0.0586967
1791.65	4.83085
1791.91	2.91497
1792.16	6.74501
1792.42	9.62141
1792.67	-0.908951
1792.93	3.88453
1793.18	5.8079
1793.43	4.85598
1793.69	3.90173
1793.94	1.98883
1794.2	1.038
1794.45	2.00033
1794.7	3.91887
1794.96	0.083828
1795.21	5.84585
1795.47	1.08292
1795.72	-0.816252
1795.97	2.07435
1796.23	4.9627
1796.48	4.01206
1796.74	3.06136
1796.99	2.1105
1797.25	5.96342
1797.5	2.12941
1797.75	8.86573
1798.01	-2.66148
1798.26	3.11289
1798.51	7.92633
1798.77	4.08522
1799.02	4.08816
1799.28	5.05027
1799.53	1.20314
1799.78	-1.68334
1800.04	6.00187
1800.29	1.19292
1800.55	3.1122
1800.8	-1.69277
1801.05	1.18876
1801.31	5.03136
1801.56	0.23019
1801.81	2.1537
1802.07	-0.724186
1802.32	4.0835
1802.58	5.05025
1802.83	0.253464
1803.08	-0.699612
1803.34	-1.65208
1803.59	3.1641
1803.84	1.24959
1804.1	4.14019
1804.35	4.14461
1804.61	2.22797
1804.86	3.19894
1805.11	2.2457
1805.37	1.29334
1805.62	1.30412
1805.87	-2.53715
1806.13	2.2875
1806.38	2.29602
1806.64	0.376812
1806.89	6.16551
1807.14	3.27999
1807.4	-0.571609
1807.65	2.32237
1807.9	3.28857
1808.16	2.32745
1808.41	0.402607
1808.66	-1.5221
1808.92	2.33669
1809.17	3.30414
1809.42	1.37977
1809.68	1.38313
1809.93	-1.50544
1810.18	2.35448
1810.44	-1.49879
1810.69	0.432003
1810.94	1.39665
1811.2	1.39709
1811.45	4.29092
1811.7	2.36412
1811.96	4.29383
1812.21	1.40413
1812.46	7.1925
1812.72	2.37778
1812.97	-0.508375
1813.22	0.463844
1813.48	1.43529
1813.73	4.33358
1813.98	3.37589
1814.24	5.31606
1814.49	-0.46413
1814.74	1.47802
1815	-3.33881
1815.25	-0.432764
1815.5	1.50683
1815.76	4.41087
1816.01	3.44825
1816.26	-3.31387
1816.52	-1.37732
1816.77	3.4599
1817.02	-1.36932
1817.27	4.43076
1817.53	4.42731
1817.78	1.51377
1818.03	-1.39303
1818.29	0.541878
1818.54	2.48149
1818.79	-0.406124
1819.05	-2.3322
1819.3	-0.39925
1819.55	2.50415
1819.8	6.37631
1820.06	-0.384195
1820.31	-0.379608
1820.56	1.55959
1820.82	-1.33528
1821.07	4.47266
1821.32	-2.29295
1821.58	3.51705
1821.83	6.42702
1822.08	-4.21037
1822.33	3.53693
1822.59	3.54182
1822.84	2.57787
1823.09	1.61336
1823.34	-1.28769
1823.6	1.61744
1823.85	-0.319902
1824.1	2.58206
1824.36	-2.25672
1824.61	-0.316963
1824.86	2.59146
1825.11	-0.308472
1825.37	4.5373
1825.62	3.57436
1825.87	4.54683
1826.12	0.675182
1826.38	0.676403
1826.63	-0.290058
1826.88	-1.25631
1827.14	1.65133
1827.39	0.686211
1827.64	-3.18409
1827.89	1.66441
1828.15	3.60686
1828.4	3.60836
1828.65	1.67043
1828.9	2.63717
1829.16	1.66482
1829.41	-0.274246
1829.66	1.66279
1829.91	-3.17977
1830.17	2.63034
1830.42	4.56408
1830.67	3.59287
1830.92	0.68589
1831.18	3.59151
1831.43	0.691889
1831.68	2.63417
1831.93	3.60859
1832.19	5.55147
1832.44	7.49488
1832.69	2.657
1832.94	0.726839
1833.2	-1.20596
1833.45	3.64202
1833.7	4.61315
1833.95	4.61757
1834.2	3.65082
1834.46	0.745655
1834.71	5.5845
1834.96	1.6906
1835.21	2.64313
1835.47	4.56371
1835.72	0.683582
1835.97	6.47921
1836.22	3.57774
1836.48	1.63627
1836.73	3.71547
1836.98	3.71177
1837.23	1.72541
1837.48	4.61751
1837.74	4.59229
1837.99	4.57025
1838.24	-0.300261
1838.49	2.57977
1838.74	7.40674
1839	-1.23617
1839.25	-0.244709
1839.5	-0.232225
1839.75	4.61784
1840	2.68525
1840.26	5.60261
1840.51	4.60025
1840.76	5.54311
1841.01	5.5214
1841.27	-2.23073
1841.52	4.51964
1841.77	-4.18857
1842.02	3.5243
1842.27	6.40711
1842.53	1.57078
1842.78	1.56017
1843.03	2.53113
1843.28	3.49269
1843.53	2.53254
1843.78	1.56783
1844.04	-0.360987
1844.29	4.45869
1844.54	-2.2928
1844.79	0.605207
1845.04	-1.32311
1845.3	1.5657
1845.55	-1.32631
1845.8	1.56795
1846.05	3.51208
1846.3	-0.333654
1846.55	2.57644
1846.81	-2.23131
1847.06	2.58207
1847.31	-0.360838
1847.56	1.512
1847.81	-0.424015
1848.07	-0.423174
1848.32	-3.29639
1848.57	4.42557
1848.82	3.444
1849.07	2.4719
1849.32	-0.415428
1849.57	1.50381
1849.83	1.49431
1850.08	2.446
1850.33	1.47414
1850.58	-1.42264
1850.83	3.37417
1851.09	0.48229
1851.34	4.31809
1851.59	-2.41236
1851.84	-1.45632
1852.09	0.461102
1852.34	2.38
1852.59	-2.42152
1852.84	2.37965
1853.1	4.29994
1853.35	0.457985
1853.6	7.17685
1853.85	-1.46796
1854.1	-4.35363
1854.35	-2.44228
1854.6	-1.49275
1854.86	-2.46059
1855.11	3.28777
1855.36	2.32351
1855.61	2.31332
1855.86	3.25998
1856.11	-0.578634
1856.36	-0.581707
1856.61	4.20544
1856.87	2.28955
1857.12	1.33123
1857.37	-5.37494
1857.62	0.368509
1857.87	0.364359
1858.12	1.31752
1858.37	-3.4746
1858.63	-1.56647
1858.88	1.29693
1859.13	-1.58124
1859.38	-3.50195
1859.63	-2.55346
1859.88	0.30905
1860.13	2.21985
1860.38	0.307518
1860.63	-0.647043
1860.89	2.22719
1861.14	0.319782
1861.39	-0.632538
1861.64	-3.49749
1861.89	0.334227
1862.14	-0.621574
1862.39	-0.623749
1862.64	-0.62903
1862.9	-3.5061
1863.15	-0.644361
1863.4	4.12826
1863.65	-0.660255
1863.9	0.288065
1864.15	-0.674379
1864.4	-0.680786
1864.65	3.13379
1864.9	1.21679
1865.15	0.254389
1865.4	-0.709133
1865.66	-4.53638
1865.91	-8.36217
1866.16	-0.743074
1866.41	3.05594
1866.66	1.13455
1866.91	-0.784897
1867.16	-1.75075
1867.41	3.94574
1867.66	1.07759
1867.91	1.06701
1868.16	3.91283
1868.41	0.10511
1868.67	1.05266
1868.92	-0.849001
1869.17	2.95459
1869.42	-2.75084
1869.67	-0.851995
1869.92	1.99691
1870.17	-0.857641
1870.42	1.0408
1870.67	0.0877171
1870.92	-3.71623
1871.17	-1.81714
1871.42	-3.71939
1871.67	1.97944
1871.92	-2.77649
1872.17	1.01766
1872.42	-2.78712
1872.68	1.95812
1872.93	1.00112
1873.18	0.0438232
1873.43	3.83575
1873.68	1.9344
1873.93	0.032093
1874.18	0.975552
1874.43	1.91711
1874.68	-3.78389
1874.93	-3.79209
1875.18	0.940672
1875.43	-2.86146
1875.68	1.86772
1875.93	0.907026
1876.18	0.88759
1876.43	0.874229
1876.68	-1.97569
1876.93	-1.98422
1877.18	1.79361
1877.43	-6.73293
1877.68	-0.135891
1877.93	0.770176
1878.18	0.795534
1878.44	-1.93047
1878.69	-1.02708
1878.93	-0.0961132
1879.19	-0.101553
1879.44	3.71528
1879.69	0.888121
1879.94	-1.01755
1880.19	-3.86896
1880.44	-1.03136
1880.69	4.64561
1880.94	1.81156
1881.19	0.855778
1881.44	5.58622
1881.69	-0.108736
1881.94	2.71152
1882.19	0.801884
1882.44	-1.10692
1882.69	-3.01493
1882.94	-4.92397
1883.19	4.50063
1883.44	-1.1837
1883.69	-2.87885
1883.94	1.71786
1884.19	0.685862
1884.44	-2.14052
1884.69	-0.238317
1884.94	2.5707
1885.19	0.696365
1885.44	-6.83528
1885.69	1.65824
1885.94	1.66095
1886.19	-1.15643
1886.44	1.68217
1886.69	0.741323
1886.94	4.5139
1887.19	-0.223078
1887.44	3.54322
1887.69	-0.241007
1887.94	-1.19385
1888.19	1.62578
1888.44	1.61451
1888.69	-2.17026
1888.94	-1.2403
1889.19	2.51544
1889.44	0.6199
1889.69	4.37813
1889.94	-6.92107
1890.19	2.48895
1890.44	-0.333788
1890.69	0.613262
1890.94	1.56087
1891.19	-0.322411
1891.43	0.616451
1891.68	4.37876
1891.94	-1.27437
1892.18	0.605165
1892.43	-3.16509
1892.68	-2.22639
1892.93	1.5334
1893.18	0.583256
1893.43	0.569651
1893.68	1.48999
1893.93	3.35163
1894.18	4.28526
1894.43	-0.41086
1894.68	0.515348
1894.93	2.38659
1895.18	2.38198
1895.43	-0.437401
1895.68	3.3212
1895.93	2.38326
1896.18	-0.433905
1896.43	0.508131
1896.68	2.39157
1896.93	4.27679
1897.18	-5.12294
1897.42	4.28384
1897.68	0.522818
1897.92	0.522316
1898.17	-1.36119
1898.42	0.516109
1898.67	1.45075
1898.92	3.32353
1899.17	-0.447113
1899.42	1.42248
1899.67	5.17285
1899.92	-4.2293
1900.17	5.15996
1900.42	-2.36188
1900.67	0.453037
1900.92	1.39137
1901.16	0.453196
1901.41	-3.30204
1901.66	3.28075
1901.91	-0.474543
1902.16	0.470007
1902.41	1.41606
1902.66	1.42117
1902.91	-3.28393
1903.16	-1.40736
1903.41	2.34929
1903.66	-0.478186
1903.91	-2.36378
1904.16	4.21386
1904.41	-2.37151
1904.65	0.445938
1904.9	3.26306
1905.15	-0.501488
1905.4	0.435099
1905.65	3.25259
1905.9	-1.45168
1906.15	3.23618
1906.4	-0.535934
1906.65	2.27536
1906.9	3.20823
1907.14	0.385092
1907.39	5.07564
1907.64	3.19572
1907.89	1.31736
1908.14	0.38026
1908.39	1.32355
1908.64	6.02157
1908.89	4.14241
1909.14	2.26467
1909.39	1.32807
1909.63	4.15259
1909.88	-0.541693
1910.13	1.34657
1910.38	2.29623
1910.63	2.30602
1910.88	-2.39297
1911.13	1.37825
1911.38	0.439384
1911.62	3.26616
1911.87	0.439335
1912.12	-0.505215
1912.37	2.31604
1912.62	1.36948
1912.87	1.36641
1913.12	1.36399
1913.37	-0.521935
1913.61	-0.523144
1913.86	6.0736
1914.11	0.428436
1914.36	3.26427
1914.61	2.32738
1914.86	1.38917
1915.11	4.2239
1915.36	-3.31879
1915.6	1.40089
1915.85	2.34418
1916.1	3.28461
1916.35	3.2793
1916.6	4.21852
1916.85	3.26758
1917.1	1.37131
1917.34	1.363
1917.59	3.24145
1917.84	5.12093
1918.09	3.23082
1918.34	0.401117
1918.59	3.23196
1918.83	1.35125
1919.08	-0.528822
1919.33	0.421965
1919.58	0.430096
1919.83	1.38567
1920.08	0.450521
1920.33	3.28901
1920.57	-1.43641
1920.82	1.39206
1921.07	2.33682
1921.32	0.453014
1921.57	5.18621
1921.81	0.461864
1922.06	4.24674
1922.31	0.464544
1922.56	-3.32092
1922.81	-0.488539
1923.06	0.449709
1923.31	2.33341
1923.55	2.32765
1923.8	2.32242
1924.05	-1.46397
1924.3	1.36438
1924.55	1.35591
1924.79	3.23889
1925.04	-0.543884
1925.29	0.399733
1925.54	2.29138
1925.79	0.406055
1926.04	7.03147
1926.28	3.25733
1926.53	-0.519581
1926.78	-3.3518
1927.03	1.38733
1927.28	0.445229
1927.52	-1.44588
1927.77	2.34392
1928.02	-0.495409
1928.27	1.40027
1928.52	1.40151
1928.76	5.19105
1929.01	0.455957
1929.26	1.40544
1929.51	-5.22621
1929.76	3.30951
1930	3.31822
1930.25	-0.469337
1930.5	1.43568
1930.75	1.44147
1931	2.39749
1931.24	-3.29887
1931.49	3.34575
1931.74	0.492416
1931.99	1.43499
1932.24	0.478874
1932.48	1.42085
1932.73	0.464865
1932.98	-3.33765
1933.23	4.24827
1933.47	0.446621
1933.72	2.34355
1933.97	-0.495604
1934.22	3.3151
1934.46	3.33604
1934.71	-2.33987
1934.96	0.538464
1935.21	0.560549
1935.46	2.48435
1935.7	2.49913
1935.95	-0.352896
1936.2	1.52981
1936.45	-1.3352
1936.69	3.42548
1936.94	1.51277
1937.19	-0.402018
1937.44	-5.17459
1937.68	2.43558
1937.93	4.33005
1938.18	0.513336
1938.43	5.26279
1938.68	0.501564
1938.92	-0.441412
1939.17	0.512215
1939.42	-1.38972
1939.67	4.328
1939.91	0.520008
1940.16	-0.429663
1940.41	-1.38348
1940.66	5.29307
1940.9	3.39342
1941.15	1.50695
1941.4	-4.20809
1941.64	-2.30185
1941.89	2.46281
1942.14	1.49422
1942.39	-4.24809
1942.63	-3.28653
1942.88	-0.395145
1943.13	-0.389889
1943.38	-0.390879
1943.62	0.54834
1943.87	3.39339
1944.12	-0.436237
1944.37	6.26228
1944.61	-2.32265
1944.86	-6.13769
1945.11	-0.403973
1945.35	2.46741
1945.6	-0.392611
1945.85	0.568741
1946.1	-1.33805
1946.34	1.5339
1946.59	-3.24447
1946.84	-2.28708
1947.09	1.53826
1947.33	0.578918
1947.58	-4.20786
1947.83	1.52447
1948.07	-1.34723
1948.32	2.47519
1948.57	-3.26461
1948.82	-0.400723
1949.06	-0.401346
1949.31	-3.26684
1949.56	2.47632
1949.8	0.568047
1950.05	-3.25383
1950.3	2.49541
1950.54	3.46573
1950.79	0.605728
1951.04	-1.30158
1951.29	-3.20925
1951.53	1.59701
1951.78	-3.1902
1952.03	1.61624
1952.27	-1.25944
1952.52	1.62403
1952.77	0.667051
1953.01	-3.17791
1953.26	-2.21406
1953.51	0.674068
1953.76	-1.25836
1954	4.48895
1954.25	0.624722
1954.49	-1.314
1954.74	0.58453
1954.99	-1.34888
1955.24	-1.35539
1955.48	-1.35851
1955.73	0.559345
1955.98	0.566332
1956.22	-1.33882
1956.47	-0.359303
1956.72	-1.31186
1956.96	-3.22374
1957.21	1.58041
1957.46	1.58652
1957.7	2.55244
1957.95	-1.2861
1958.2	-0.322554
1958.44	1.601
1958.69	1.60155
1958.94	0.640257
1959.18	2.55791
1959.43	-0.333614
1959.68	4.46554
1959.92	3.50146
1960.17	-3.23067
1960.42	-0.355619
1960.66	1.55841
1960.91	-0.369661
1961.16	-1.33763
1961.4	-0.385132
1961.65	-0.391901
1961.9	3.44159
1962.14	5.36036
1962.39	4.40104
1962.63	1.52138
1962.88	-2.31817
1963.13	2.48071
1963.37	1.52047
1963.62	3.43986
1963.87	-4.24047
1964.11	1.51945
1964.36	0.561825
1964.61	2.48431
1964.85	-1.35903
1965.1	0.557209
1965.35	-0.403999
1965.59	1.51349
1965.84	-0.407843
1966.08	-0.406254
1966.33	-1.36215
1966.58	4.40755
1966.82	-5.19511
1967.07	5.37955
1967.32	4.42164
1967.56	-1.34822
1967.81	0.572882
1968.05	8.26461
1968.3	-3.27132
1968.55	4.41951
1968.79	7.30136
1969.04	3.45104
1969.29	4.40429
1969.53	2.47187
1969.78	2.45926
1970.02	3.40687
1970.27	-1.40409
1970.52	0.507605
1970.76	9.13879
1971.01	6.25145
1971.25	4.32535
1971.5	2.40111
1971.75	4.31468
1971.99	1.43302
1972.24	1.43413
1972.48	2.39536
1972.73	-0.482218
1972.98	4.31281
1973.22	2.38972
1973.47	4.30077
1973.71	5.25016
1973.96	1.40696
1974.21	7.15275
1974.45	6.18954
1974.7	4.26979
1974.94	3.31021
1975.19	4.26883
1975.44	7.14655
1975.68	2.35674
1975.93	1.40202
1976.17	5.24152
1976.42	0.448593
1976.66	4.28641
1976.91	9.08283
1977.16	4.28568
1977.4	6.20189
1977.65	5.23901
1977.89	0.438316
1978.14	6.18553
1978.39	9.05439
1978.63	5.21309
1978.88	9.04204
1979.12	9.99685
1979.37	5.20336
1979.61	7.12056
1979.86	9.99536
1980.1	7.12043
1980.35	9.03729
1980.6	7.11532
1980.84	6.14894
1981.09	9.01594
1981.33	5.17906
1981.58	11.8784
1981.82	4.20983
1982.07	9.95314
1982.31	8.03522
1982.56	10.906
1982.81	11.8558
1983.05	8.01782
1983.3	11.8362
1983.54	7.99465
1983.79	13.7252
1984.03	4.1537
1984.28	12.7592
1984.52	10.8411
1984.77	6.05403
1985.02	7.96255
1985.26	9.86726
1985.51	8.8996
1985.75	8.89369
1986	7.93742
1986.24	7.9393
1986.49	11.7682
1986.73	10.8189
1986.98	14.6469
1987.22	10.8197
1987.47	12.7349
1987.71	9.85824
1987.96	13.6685
1988.21	13.6525
1988.45	8.85877
1988.7	7.88519
1988.94	11.6774
1989.19	14.4467
1989.43	10.6454
1989.68	15.1937
1989.92	11.6051
1990.17	8.89484
1990.41	9.51333
1990.66	11.7327
1990.9	11.6696
1991.15	14.5976
1991.39	14.5944
1991.64	11.8061
1991.88	12.7515
1992.13	15.7058
1992.37	16.2197
1992.62	14.8894
1992.86	16.1744
1993.11	13.8052
1993.35	14.2583
1993.6	11.9067
1993.84	13.4168
1994.09	8.42457
1994.33	14.5519
1994.58	17.4491
1994.82	15.7684
1995.07	12.8356
1995.31	12.7981
1995.56	13.3941
1995.8	13.4161
1996.05	13.7491
1996.29	11.9894
1996.54	16.3159
1996.78	20.4102
1997.03	17.2279
1997.27	13.6926
1997.52	13.745
1997.76	14.0187
1998.01	14.507
1998.25	13.4966
1998.5	16.8806
1998.74	8.79263
1998.99	17.4879
1999.23	19.588
1999.48	18.2108
1999.72	15.9634
1999.97	13.0255
2000.21	15.7837
2000.46	16.495
2000.7	19.2997
2000.95	19.706
2001.19	17.181
2001.43	17.2501
2001.68	17.2569
2001.92	19.3955
2002.17	17.3653
2002.41	16.2378
2002.66	20.3639
2002.9	18.6696
2003.15	14.3167
2003.39	16.9486
2003.64	18.3233
2003.88	17.3925
2004.13	16.7249
2004.37	18.8018
2004.61	17.506
2004.86	17.0798
2005.1	16.0182
2005.35	21.4171
2005.59	19.3531
2005.84	16.9852
2006.08	18.0558
2006.33	16.2163
2006.57	17.3673
2006.81	15.2812
2007.06	18.6855
2007.3	19.9809
2007.55	20.811
2007.79	18.1364
2008.04	17.9023
2008.28	16.7825
2008.53	15.9131
2008.77	19.7157
2009.01	18.7357
2009.26	15.2706
2009.5	19.2622
2009.75	18.2723
2009.99	17.7702
2010.24	20.7133
2010.48	17.0315
2010.73	15.553
2010.97	14.3171
2011.21	19.651
2011.46	13.0791
2011.7	14.998
2011.95	20.2726
2012.19	20.0387
2012.43	14.5881
2012.68	20.2363
2012.92	14.5855
2013.17	16.4611
2013.42	20.2111
2013.67	12.6636
2013.91	19.2354
2014.16	17.3395
2014.41	18.2603
2014.66	17.2978
2014.9	14.4621
2015.15	17.274
2015.4	18.2171
2015.64	23.858
2015.89	20.1148
2016.14	20.1235
2016.39	14.4877
2016.63	11.6847
2016.88	16.4173
2017.13	19.2464
2017.37	20.1859
2017.62	16.422
2017.87	15.4741
2018.11	16.4018
2018.36	9.81459
2018.61	13.5542
2018.86	16.355
2019.1	14.465
2019.35	12.575
2019.6	13.4991
2019.84	11.6197
2020.09	10.6798
2020.34	16.2992
2020.58	8.80813
2020.83	14.4285
2021.08	12.5565
2021.33	18.1814
2021.57	14.4408
2021.82	12.5706
2022.07	11.6349
2022.31	13.5071
2022.56	16.313
2022.81	14.4346
2023.05	11.6187
2023.3	14.4169
2023.55	16.2814
2023.8	15.3387
2024.04	13.4616
2024.29	10.6503
2024.54	15.319
2024.78	11.5695
2025.03	6.88762
2025.27	13.4147
2025.52	15.2709
2025.77	6.86176
2026.02	6.85479
2026.26	11.5079
2026.51	11.5153
2026.76	11.5343
2027	7.82968
2027.25	12.5342
2027.5	12.5746
2027.74	11.6653
2027.99	9.79182
2028.23	10.7046
2028.48	10.6699
2028.73	10.561
2028.98	9.73989
2029.22	11.766
2029.47	11.6848
2029.72	15.4738
2029.96	15.3969
2030.21	14.4163
2030.45	9.70492
2030.7	12.5044
2030.95	8.74502
2031.19	11.575
2031.44	10.6705
2031.69	9.73479
2031.93	9.73872
2032.18	8.81048
2032.43	12.5591
2032.67	7.90856
2032.92	11.6625
2033.17	12.6145
2033.41	7.02187
2033.66	7.03338
2033.91	7.98332
2034.15	7.05741
2034.4	6.10699
2034.64	10.7565
2034.89	9.78519
2035.14	9.77861
2035.38	7.93307
2035.63	5.14933
2035.87	7.0417
2036.12	6.13804
2036.37	6.16073
2036.61	8.96896
2036.86	10.822
2037.11	11.7621
2037.35	8.03608
2037.6	8.03976
2037.84	3.36686
2038.09	9.91205
2038.34	7.10673
2038.58	7.10547
2038.83	4.30014
2039.08	4.29871
2039.32	7.09996
2039.57	8.03171
2039.81	10.831
2040.06	8.02496
2040.31	7.08487
2040.55	8.01196
2040.8	8.93916
2041.04	8.93395
2041.29	11.7275
2041.54	5.19812
2041.78	7.99635
2042.03	4.26945
2042.27	6.13324
2042.52	8.92912
2042.77	5.19815
2043.01	7.99484
2043.26	7.06735
2043.5	8.00688
2043.75	7.08966
2044	10.8388
2044.24	3.39784
2044.49	6.20638
2044.73	1.54451
2044.98	5.27219
2045.23	8.98979
2045.47	9.89081
2045.72	3.41647
2045.96	7.16302
2046.21	3.48392
2046.45	11.0298
2046.7	7.25928
2046.95	4.42553
2047.19	8.13819
2047.44	8.14445
2047.68	6.27153
2047.93	9.0442
2048.17	7.17623
2048.42	5.31814
2048.67	6.25689
2048.91	6.26412
2049.16	10.0024
2049.4	4.4216
2049.65	3.50089
2049.89	2.58224
2050.14	2.59905
2050.39	5.41417
2050.63	5.42916
2050.88	5.43973
2051.12	-0.159035
2051.37	1.71239
2051.61	4.51291
2051.86	10.1101
2052.11	5.4461
2052.35	-0.150663
2052.6	9.19794
2052.84	4.53498
2053.09	5.47826
2053.33	5.48907
2053.58	3.63245
2053.82	5.51553
2054.07	6.47269
2054.31	4.61413
2054.56	10.2365
2054.8	3.69478
2055.05	1.82833
2055.3	3.70262
2055.54	7.44677
2055.79	2.7675
2056.03	2.769
2056.28	-0.967173
2056.52	2.77481
2056.77	5.58082
2057.01	-0.0244503
2057.26	1.85004
2057.5	3.72642
2057.75	4.66922
2058	4.67891
2058.24	4.68956
2058.49	2.82975
2058.73	0.0367622
2058.98	6.59896
2059.22	0.0606537
2059.47	3.81499
2059.71	5.69482
2059.96	-0.851023
2060.2	4.77234
2060.45	2.90127
2060.69	0.0939713
2060.94	3.83964
2061.18	3.84924
2061.43	2.92357
2061.67	5.74111
2061.92	-3.61428
2062.16	2.9458
2062.41	1.07998
2062.65	4.83336
2062.9	2.03323
2063.14	1.10677
2063.39	2.05484
2063.63	4.87677
2063.88	2.0758
2064.12	2.08508
2064.37	3.03078
2064.61	1.16445
2064.86	5.86127
2065.1	0.246441
2065.35	4.94858
2065.59	1.21228
2065.84	1.22671
2066.08	4.05604
2066.33	1.25197
2066.57	5.01811
2066.82	-3.42591
2067.06	1.27849
2067.31	3.1664
2067.55	2.2358
2067.8	1.30649
2068.04	1.3175
2068.29	-2.43134
2068.53	-1.48265
2068.78	-0.535101
2069.02	0.415337
2069.27	5.12219
2069.51	-1.45668
2069.76	-2.39846
2070	0.413517
2070.25	1.35357
2070.49	-0.515953
2070.73	4.20037
2070.98	2.34336
2071.22	1.42537
2071.47	2.36971
2071.71	2.36627
2071.96	0.52631
2072.2	-0.397087
2072.45	-2.27644
2072.69	-1.33074
2072.94	6.20728
2073.18	2.44427
2073.43	1.50881
2073.67	2.45475
2073.92	0.57933
2074.16	-0.355042
2074.4	1.53607
2074.65	2.48751
2074.89	2.49977
2075.14	4.39884
2075.38	-0.295626
2075.63	1.60947
2075.87	-2.14157
2076.12	1.64975
2076.36	-0.226151
2076.6	0.724838
2076.85	-0.211542
2077.09	0.73551
2077.34	1.67934
2077.58	-3.03916
2077.83	1.67052
2078.07	-1.15569
2078.31	-2.08906
2078.56	-1.13345
2078.8	-2.068
2079.05	2.65832
2079.29	-0.161598
2079.54	0.795658
2079.78	1.7606
2080.03	-1.0603
2080.27	-2.93832
2080.51	-0.0930882
2080.76	1.80715
2081	-0.0759735
2081.25	-0.0724888
2081.49	1.82159
2081.74	-3.84179
2081.98	-1.94599
2082.22	-0.995724
2082.47	-1.93189
2082.71	-5.70306
2082.96	-3.80523
2083.2	-1.90814
2083.45	3.76795
2083.69	1.88318
2083.93	-0.946335
2084.18	4.72993
2084.42	-1.87772
2084.67	1.90832
2084.91	0.970415
2085.15	3.813
2085.4	0.984852
2085.64	-2.7887
2085.89	-0.891951
2086.13	-0.88331
2086.37	4.80264
2086.62	0.0919418
2086.86	-0.840506
2087.11	-3.66898
2087.35	-0.820877
2087.59	0.136757
2087.84	0.146267
2088.08	0.153172
2088.32	0.160334
2088.57	0.167847
2088.81	-0.770607
2089.06	1.13065
2089.3	0.192245
2089.54	3.04373
2089.79	3.05597
2090.03	0.229815
2090.28	1.18656
2090.52	4.03677
2090.76	0.25643
2091.01	-3.52397
2091.25	1.22353
2091.5	4.07676
2091.74	0.295883
2091.98	-0.63781
2092.23	-0.622719
2092.47	0.341824
2092.72	-1.53977
2092.96	-1.52342
2093.2	2.28904
2093.45	-0.545719
2093.69	-0.531607
2093.93	5.18398
2094.18	0.445446
2094.42	-0.492872
2094.66	-2.38586
2094.91	0.473183
2095.15	3.33074
2095.39	0.483328
2095.64	-1.41574
2095.88	3.33762
2096.13	-1.41098
2096.37	2.39298
2096.61	-2.35248
2096.86	1.45326
2097.1	3.35878
2097.34	2.41149
2097.59	0.512903
2097.83	0.51395
2098.07	1.46774
2098.32	0.523689
2098.56	1.47839
2098.8	-0.417332
2099.05	0.538734
2099.29	-1.35332
2099.53	-2.2971
2099.78	2.45367
2100.02	2.46003
2100.27	-1.32876
2100.51	-0.371935
2100.75	-3.21075
2101	0.595518
2101.24	3.45799
2101.48	-6.02506
2101.73	0.632978
2101.97	-0.308044
2102.21	2.54837
2102.45	-1.24466
2102.7	2.5617
2102.94	2.5668
2103.18	1.61909
2103.43	5.41749
2103.67	0.674109
2103.92	-1.21832
2104.16	-0.263704
2104.4	0.693035
2104.64	-1.19617
2104.89	0.714008
2105.13	-0.224255
2105.37	-0.213299
2105.62	3.59847
2105.86	1.7124
2106.1	3.62591
2106.35	-3.96725
2106.59	0.795033
2106.83	-2.04831
2107.08	-2.99084
2107.32	-1.07999
2107.56	-3.92448
2107.8	2.73462
2108.05	-4.8685
2108.29	-2.01682
2108.53	0.83284
2108.78	3.6811
2109.02	-0.116911
2109.26	-0.112272
2109.51	-2.00311
2109.75	-1.98934
2109.99	0.872919
2110.23	-1.01973
2110.48	-0.0626736
2110.72	-1.95571
2110.96	-0.998821
2111.21	-0.991785
2111.45	-0.985081
2111.69	1.86977
2111.93	0.922792
2112.18	0.92675
2112.42	-0.0176697
2112.66	-0.0108414
2112.91	-0.00106239
2113.15	0.00885773
2113.39	-1.88071
2113.63	0.033186
2113.88	-0.904404
2114.12	0.0557289
2114.36	3.86277
2114.61	0.0654583
2114.85	-0.878508
2115.09	-1.82067
2115.33	1.03816
2115.58	0.0931683
2115.82	-1.8029
2116.06	0.102406
2116.31	-3.69357
2116.55	1.05812
2116.79	2.95895
2117.03	0.113977
2117.28	1.06904
2117.52	-2.72359
2117.76	1.08291
2118	1.08685
2118.25	-0.809599
2118.49	3.93893
2118.73	-0.807543
2118.97	-0.808712
2119.22	-1.75653
2119.46	-0.806931
2119.7	2.03845
2119.94	0.14337
2120.19	1.09278
2120.43	-0.799757
2120.67	-1.74184
2120.91	0.160948
2121.16	3.01569
2121.4	-0.765728
2121.64	2.09139
2121.88	-0.73909
2122.13	2.11933
2122.37	1.18383
2122.61	0.247261
2122.85	0.258482
2123.1	0.269182
2123.34	-0.66993
2123.58	1.2379
2123.82	-2.55164
2124.07	-0.648182
2124.31	-2.54283
2124.55	0.306808
2124.79	-1.59136
2125.03	1.25027
2125.28	3.13903
2125.52	-0.658163
2125.76	-4.44962
2126	-1.60925
2126.25	-4.45012
2126.49	1.22892
2126.73	-2.55529
2126.97	-2.55387
2127.21	-0.660994
2127.46	-1.60553
2127.7	-1.6011
2127.94	-0.650269
2128.18	1.24567
2128.43	-3.47729
2128.67	5.03522
2128.91	1.26104
2129.15	0.322653
2129.39	-0.617035
2129.64	0.332644
2129.88	2.22762
2130.12	0.342869
2130.36	0.348188
2130.6	1.29814
2130.85	-3.42188
2131.09	-0.583208
2131.33	-2.46924
2131.57	3.20094
2131.81	1.31393
2132.06	-1.51637
2132.3	0.376049
2132.54	1.32352
2132.78	-0.563318
2133.02	-3.39285
2133.27	-0.557789
2133.51	-1.49516
2133.75	0.399817
2133.99	0.407511
2134.23	3.24544
2134.48	-2.40903
2134.72	-1.4579
2134.96	-3.33952
2135.2	3.27239
2135.44	-0.496788
2135.68	-4.26624
2135.93	-0.487818
2136.17	-4.25958
2136.41	0.455286
2136.65	0.453333
2136.89	3.28374
2137.14	-2.36479
2137.38	1.4138
2137.62	4.24923
2137.86	-0.455301
2138.1	-1.38606
2138.34	0.504406
2138.59	3.3311
2138.83	-0.439302
2139.07	-5.14161
2139.31	0.530331
2139.55	-1.34324
2139.79	-1.34994
2140.03	3.35867
2140.28	-4.1786
2140.52	2.41917
2140.76	1.47968
2141	-0.400988
2141.24	1.48689
2141.49	-1.33441
2141.73	1.49761
2141.97	2.43962
2142.21	-0.384964
2142.45	1.50155
2142.69	-1.31609
2142.93	-2.2462
2143.18	-1.29435
2143.42	-1.26667
2143.66	2.49734
2143.9	0.549028
2144.14	-4.14323
2144.38	-4.13266
2144.62	0.582607
2144.87	-0.34206
2145.11	2.49161
2145.35	-0.339933
2145.59	3.42944
2145.83	-2.20472
2146.07	-1.25977
2146.31	1.56462
2146.55	1.56821
2146.8	7.21194
2147.04	0.635792
2147.28	1.57886
2147.52	2.52054
2147.76	3.4621
2148	-0.293505
2148.24	0.649055
2148.48	-0.287466
2148.73	2.53278
2148.97	-0.282177
2149.21	0.658474
2149.45	2.53606
2149.69	0.657995
2149.93	1.59027
2150.17	3.46522
2150.42	0.64996
2150.66	1.58757
2150.9	0.653214
2151.14	-1.21603
2151.38	-0.270571
2151.62	-2.1352
2151.86	4.43657
2152.1	2.57185
2152.34	-0.233814
2152.58	2.58981
2152.83	1.65331
2153.07	-5.84665
2153.31	0.717934
2153.55	0.71903
2153.79	-2.08951
2154.03	-3.0233
2154.27	1.6636
2154.51	0.725399
2154.75	2.59452
2154.99	-1.15688
2155.24	1.64558
2155.48	-0.232391
2155.72	0.699654
2155.96	1.63164
2156.2	-3.0425
2156.44	0.6957
2156.68	1.63255
2156.92	0.7027
2157.16	1.64169
2157.4	-2.08918
2157.64	-1.14761
2157.89	0.730261
2158.13	0.740911
2158.37	-0.183743
2158.61	0.757645
2158.85	-2.97596
2159.09	0.767143
2159.33	-0.164459
2159.57	0.772064
2159.81	-0.161406
2160.05	-2.96384
2160.29	1.70512
2160.53	-0.164068
2160.77	-1.09815
2161.01	0.768684
2161.25	-1.09543
2161.5	-2.02462
2161.74	-3.88773
2161.98	4.5119
2162.22	5.44896
2162.46	2.65536
2162.7	-1.07094
2162.94	-0.133257
2163.18	3.60093
2163.42	1.73665
2163.66	1.73869
2163.9	-1.05661
2164.14	-1.05427
2164.38	-0.119923
2164.62	1.74362
2164.86	3.60486
2165.11	-0.121769
2165.35	1.74786
2165.59	2.68765
2165.83	-0.102425
2166.07	5.49421
2166.31	3.63585
2166.55	5.5008
2166.79	3.63898
2167.03	-0.0867138
2167.27	0.84424
2167.51	-1.01733
2167.75	-1.01839
2167.99	0.840191
2168.23	-1.95914
2168.47	-0.10569
2168.71	0.82468
2168.95	-1.03042
2169.19	0.835381
2169.43	-0.0859108
2169.67	-3.79576
2169.91	-0.993521
2170.15	-0.979778
2170.39	2.75908
2170.63	-0.0231037
2170.87	3.70924
2171.11	1.8494
2171.35	2.77954
2171.59	4.64351
2171.83	-0.948046
2172.07	-1.89146
2172.31	0.892715
2172.56	3.68033
2172.79	-0.966576
2173.04	-0.0363388
2173.28	1.82569
2173.51	0.900736
2173.76	-0.0241203
2174	-0.0176353
2174.24	0.919645
2174.48	1.85612
2174.72	-0.926252
2174.96	-0.921389
2175.2	0.9417
2175.44	-1.84249
2175.68	0.0189877
2175.92	-1.83685
2176.16	-0.904032
2176.4	-0.900993
2176.64	0.959484
2176.88	-1.8274
2177.12	0.0331993
2177.36	-1.82021
2177.6	1.90056
2177.84	2.83435
2178.08	0.0512142
2178.32	1.91447
2178.55	0.0582027
2178.8	1.91256
2179.03	0.0541267
2179.28	-1.79921
2179.52	0.0630512
2179.75	-0.860844
2180	1.92916
2180.23	1.93321
2180.47	0.0801353
2180.71	1.01198
2180.95	2.87116
2181.19	1.01664
2181.43	0.0916348
2181.67	1.95058
2181.91	1.95122
2182.15	-4.54444
2182.39	-0.829544
2182.63	-3.61259
2182.87	0.100443
2183.11	0.101912
2183.35	1.95575
2183.59	1.02591
2183.83	1.94884
2184.07	1.94668
2184.31	-2.68755
2184.55	2.87237
2184.79	-0.831301
2185.03	-0.826595
2185.27	1.03313
2185.51	2.89253
2185.75	0.118181
2185.99	2.90612
2186.23	1.06067
2186.47	4.77852
2186.7	-1.70424
2186.95	-0.765688
2187.18	0.173784
2187.42	0.1854
2187.66	-0.731667
2187.9	-1.65114
2188.14	1.14031
2188.38	2.06972
2188.62	0.211321
2188.86	0.20973
2189.1	2.99207
2189.34	0.204699
2189.58	2.05634
2189.82	2.97786
2190.06	2.04609
2190.3	1.11882
2190.54	1.1212
2190.78	1.1253
2191.01	3.91239
2191.25	0.209753
2191.49	-1.6411
2191.73	-1.63622
2191.97	2.07847
2192.21	1.15708
2192.45	1.16294
2192.69	1.16858
2192.93	-0.680824
2193.17	2.11024
2193.41	-0.66535
2193.65	2.12661
2193.89	-0.648678
2194.13	-2.49183
2194.36	2.16902
2194.6	2.18165
2194.84	4.04936
2195.08	-2.4565
2195.32	0.332457
2195.56	-4.31423
2195.8	-0.597342
2196.04	-0.599749
2196.28	1.25373
2196.52	-0.609774
2196.76	-2.47135
2197	3.09372
2197.23	3.09116
2197.47	0.306347
2197.71	1.23294
2197.95	2.16367
2198.19	0.312447
2198.43	-2.46459
2198.67	3.1114
2198.91	-1.51871
2199.15	3.13371
2199.38	-1.49677
2199.62	4.0875
2199.86	-0.546032
2200.1	-0.534567
2200.34	7.85163
2200.58	-0.502478
2200.82	1.37456
2201.06	-1.40553
2201.3	-0.463566
2201.54	-0.454308
2201.77	-1.39377
2202.01	4.16715
2202.25	1.31938
2202.49	2.20982
2202.73	2.23079
2202.97	-2.36438
2203.21	2.30836
2203.45	-0.486937
2203.68	0.440176
2203.92	3.25801
2204.16	4.28972
2204.4	0.524803
2204.64	-0.40704
2204.88	0.53257
2205.12	-1.34699
2205.36	3.28891
2205.59	0.476984
2205.83	-0.465197
2206.07	6.97111
2206.31	0.466343
2206.55	-2.31479
2206.79	-0.451483
2207.03	0.471098
2207.26	0.475267
2207.5	0.48176
2207.74	1.41927
2207.98	0.497288
2208.22	2.36638
2208.46	1.44436
2208.7	-0.409187
2208.93	2.39093
2209.17	2.3975
2209.41	1.47168
2209.65	4.26974
2209.89	3.34102
2210.13	2.41125
2210.36	4.27733
2210.6	0.557791
2210.84	1.49557
2211.08	-3.15636
2211.32	1.50923
2211.56	2.44784
2211.8	-0.341682
2212.03	-1.26622
2212.27	-0.325954
2212.51	2.47855
2212.75	1.55011
2212.99	2.48326
2213.23	-2.18095
2213.46	-1.24843
2213.7	0.614733
2213.94	0.612186
2214.18	-2.18125
2214.42	-2.17435
2214.66	2.50246
2214.89	1.58242
2215.13	6.25471
2215.37	-0.27492
2215.61	-4.00544
2215.85	-2.13508
2216.08	-0.265074
2216.32	-1.19654
2216.56	0.672499
2216.8	0.673826
2217.04	1.60825
2217.28	-1.19151
2217.51	-3.05668
2217.75	2.54786
2217.99	7.2195
2218.23	-3.9825
2218.47	-0.246183
2218.7	2.55801
2218.94	-1.17233
2219.18	3.50279
2219.42	4.44414
2219.66	-2.08821
2219.9	-1.14921
2220.13	-0.209644
2220.37	-3.009
2220.61	-2.07306
2220.85	-3.00682
2221.09	1.6669
2221.32	-0.202955
2221.56	-3.94417
2221.8	2.58956
2222.04	-0.216251
2222.27	-3.02016
2222.51	4.44662
2222.75	-0.21974
2222.99	0.717476
2223.23	-0.210533
2223.46	1.66274
2223.7	1.66925
2223.94	0.743439
2224.18	-2.05042
2224.42	-1.10645
2224.65	1.70768
2224.89	3.58696
2225.13	-2.0179
2225.37	2.66768
2225.6	-1.06734
2225.84	0.814026
2226.08	0.821745
2226.32	-1.04423
2226.56	0.836641
2226.79	2.71657
2227.03	0.849947
2227.27	0.856848
2227.51	-0.0747643
2227.74	-0.0699806
2227.98	-0.0665779
2228.22	-1.9411
2228.46	-1.00363
2228.69	-1.94147
2228.93	-1.94153
2229.17	1.80887
2229.41	-1.94093
2229.64	-0.0644398
2229.88	3.69208
2230.12	-4.73956
2230.36	-2.85658
2230.6	-4.72748
2230.83	-1.90637
2231.07	-1.89989
2231.31	0.923473
2231.55	-0.00780296
2231.78	0.939447
2232.02	-1.87244
2232.26	0.0134125
2232.5	-2.79974
2232.73	1.907
2232.97	-2.78791
2233.21	-0.901005
2233.45	0.986382
2233.68	1.93369
2233.92	0.999434
2234.16	0.0635872
2234.39	3.83317
2234.63	-0.873203
2234.87	3.83211
2235.11	1.0068
2235.34	3.82613
2235.58	2.87642
2235.82	0.0494919
2236.06	1.93223
2236.29	0.0540466
2236.53	1.93786
2236.77	0.0598354
2237	-0.878246
2237.24	-3.69734
2237.48	-2.74981
2237.72	1.02076
2237.95	4.79827
2238.19	-0.838392
2238.43	2.94144
2238.67	2.95089
2238.9	-0.810963
2239.14	1.08411
2239.38	0.152004
2239.61	1.09865
2239.85	-1.73241
2240.09	0.152163
2240.33	-0.796734
2240.56	1.08405
2240.8	-3.631
2241.04	-3.62013
2241.27	-0.779991
2241.51	0.166508
2241.75	-0.773966
2241.99	-4.54522
2242.22	0.176044
2242.46	2.06732
2242.7	-0.75996
2242.93	0.188599
2243.17	3.96676
2243.41	-0.753193
2243.64	-0.75518
2243.88	-1.7014
2244.12	3.96033
2244.36	-0.757593
2244.59	2.07577
2244.83	1.13752
2245.07	-0.741455
2245.3	-0.72982
2245.54	2.11548
2245.78	2.12342
2246.01	-3.54167
2246.25	-2.59005
2246.49	4.03622
2246.72	1.20499
2246.96	0.263056
2247.2	2.16071
2247.43	0.27371
2247.67	2.17061
2247.91	0.280317
2248.14	-1.6116
2248.38	-0.665106
2248.62	1.22743
2248.85	1.22708
2249.09	2.17322
2249.33	2.173
2249.56	2.17322
2249.8	0.286774
2250.04	-0.655113
2250.27	-1.60051
2250.51	1.23686
2250.75	1.23298
2250.98	0.282753
2251.22	2.1694
2251.46	-1.61677
2251.69	2.16298
2251.93	-1.61888
2252.17	-0.67112
2252.4	0.278584
2252.64	-0.66168
2252.88	-0.65519
2253.11	-1.592
2253.35	-1.57746
2253.59	-3.46106
2253.82	4.12638
2254.06	-0.603338
2254.3	0.350557
2254.53	-2.48702
2254.77	0.362045
2255.01	-2.48063
2255.24	1.31091
2255.48	-2.47896
2255.72	-3.42557
2255.95	1.31772
2256.19	1.32031
2256.42	-3.41572
2256.66	2.28163
2256.9	0.390402
2257.13	5.14087
2257.37	2.30024
2257.61	1.35703
2257.84	0.413311
2258.08	-2.43097
2258.32	3.26946
2258.55	-1.47605
2258.79	-3.37241
2259.02	0.430483
2259.26	-2.41417
2259.5	1.39131
2259.73	-1.4552
2259.97	-3.35226
2260.2	3.30475
2260.44	-1.44325
2260.68	0.46191
2260.91	0.465939
2261.15	-5.23372
2261.39	1.43267
2261.62	-3.31698
2261.86	-1.41151
2262.1	2.3976
2262.33	2.40154
2262.57	-1.40122
2262.8	-0.444372
2263.04	-1.38946
2263.28	0.52212
2263.51	-0.421829
2263.75	1.49325
2263.98	1.50445
2264.22	3.42402
2264.46	0.574984
2264.69	-0.368477
2264.93	0.595108
2265.16	-0.351652
2265.4	-0.344744
2265.64	-0.338543
2265.87	-0.336042
2266.11	-3.19911
2266.34	0.621529
2266.58	-2.24758
2266.81	-0.341921
2267.05	0.607986
2267.29	0.603853
2267.52	2.50955
2267.76	-3.2172
2267.99	0.596514
2268.23	-0.361311
2268.47	0.589632
2268.7	2.49672
2268.94	-2.26817
2269.17	-2.26319
2269.41	-1.30253
2269.65	-0.340145
2269.88	1.57774
2270.12	0.633034
2270.35	2.55416
2270.59	1.60959
2270.82	-1.24994
2271.06	0.66634
2271.3	1.62987
2271.53	0.680557
2271.77	1.64201
2272	0.691433
2272.24	-4.08437
2272.47	-0.253687
2272.71	2.61877
2272.95	0.708582
2273.18	-2.15845
2273.42	-2.15514
2273.65	-0.238169
2273.89	-2.14878
2274.12	-0.231499
2274.36	-0.228241
2274.6	-2.13935
2274.83	0.735407
2275.07	-0.218369
2275.3	-0.214567
2275.54	0.746246
2275.77	0.749998
2276.01	2.66603
2276.24	1.71473
2276.48	-1.15011
2276.72	1.73226
2276.95	-0.176163
2277.18	0.789558
2277.42	-1.1198
2277.66	2.72654
2277.89	-2.05765
2278.13	1.7929
2278.36	-1.07383
2278.6	-2.02833
2278.83	-1.06399
2279.07	-1.06156
2279.3	-2.02077
2279.54	0.860981
2279.78	-2.98248
2280.01	1.80836
2280.24	-2.99503
2280.48	-2.03974
2280.72	0.834021
2280.95	-0.127787
2281.19	-0.129269
2281.42	-3.00544
2281.66	-0.130577
2281.89	-0.130751
2282.13	0.83288
2282.36	-0.12151
2282.6	-1.0743
2282.83	-2.98504
2283.07	0.859375
2283.3	-2.96986
2283.54	1.83745
2283.77	-0.0694332
2284.01	-1.01567
2284.24	-1.96386
2284.48	0.93401
2284.71	0.943556
2284.95	-0.0127392
2285.19	3.84386
2285.42	-2.88299
2285.65	-1.91648
2285.89	0.973837
2286.12	-2.8782
2286.36	0.00108337
2286.59	0.964529
2286.83	2.89279
2287.06	0.975887
2287.3	-0.934164
2287.54	2.92965
2287.77	-1.87878
2288	-0.910494
2288.24	0.0622749
2288.47	-0.900419
2288.71	1.02486
2288.94	1.02341
2289.18	1.02118
2289.41	2.9409
2289.65	1.9705
2289.88	1.96362
2290.12	0.993208
2290.35	0.0306091
2290.59	-1.89203
2290.82	4.8401
2291.06	0.0365658
2291.29	1.00452
2291.53	2.93781
2291.76	3.9122
2292	1.03462
2292.23	-0.88306
2292.47	-2.80145
2292.7	1.05719
2292.94	0.103136
2293.17	3.00162
2293.41	-0.844658
2293.64	-1.80186
2293.88	0.131126
2294.11	1.09926
2294.34	1.10002
2294.58	1.09963
2294.81	1.0983
2295.05	3.98608
2295.28	3.02147
2295.52	-0.832054
2295.75	1.09315
2295.99	2.0551
2296.22	0.129192
2296.46	-1.799
2296.69	3.96679
2296.93	1.08181
2297.16	0.124752
2297.39	2.05586
2297.63	-2.74853
2297.86	1.11037
2298.1	1.1208
2298.33	-1.75715
2298.57	1.14162
2298.8	0.184669
2299.04	2.1205
2299.27	-0.761831
2299.51	2.13957
2299.74	0.218355
2299.97	-3.63474
2300.21	3.12033
2300.44	3.12347
2300.68	3.12574
2300.91	-0.726929
2301.15	-0.719694
2301.38	-1.67859
2301.61	3.15297
2301.85	4.12321
2302.08	-2.63003
2302.32	2.19849
2302.55	-2.62686
2302.79	2.20012
2303.02	-4.55217
2303.25	2.20621
2303.49	1.2426
2303.72	-3.58012
2303.96	1.24875
2304.19	3.1848
2304.43	2.22741
2304.66	-1.62724
2304.89	-5.4841
2305.13	1.28232
2305.36	1.29049
2305.6	-0.635607
2305.83	3.2333
2306.07	0.340015
2306.3	-4.48549
2306.53	-0.613888
2306.77	0.356806
2307	0.360382
2307.24	1.32965
2307.47	-0.601244
2307.7	0.36599
2307.94	0.365793
2308.17	4.232
2308.41	0.367569
2308.64	-1.56378
2308.87	-3.49302
2309.11	0.375685
2309.34	2.31527
2309.58	-0.576424
2309.81	0.399588
2310.04	1.37786
2310.28	0.419409
2310.51	-1.50977
2310.75	-2.47347
2310.98	-1.50373
2311.21	0.43133
2311.45	-0.538738
2311.68	0.416569
2311.92	-0.562967
2312.15	0.396809
2312.38	-1.53735
2312.62	-3.46822
2312.85	2.32094
2313.08	0.390528
2313.32	-1.53664
2313.55	1.36412
2313.79	0.409948
2314.02	-0.542727
2314.25	2.36552
2314.49	1.4104
2314.72	-0.511597
2314.95	2.40153
2315.19	-2.42256
2315.42	-1.44826
2315.66	-1.45169
2315.89	5.31401
2316.12	0.476818
2316.36	-0.493792
2316.59	4.32547
2316.82	0.456966
2317.06	2.38732
2317.29	2.38954
2317.52	1.42821
2317.76	5.2953
2317.99	0.47654
2318.23	0.48394
2318.46	2.40955
2318.69	3.37334
2318.93	1.44122
2319.16	-0.49106
2319.39	0.472696
2319.63	0.47156
2319.86	1.43638
2320.09	1.43708
2320.33	0.474905
2320.56	3.37312
2320.79	1.44562
2321.03	1.4508
2321.26	0.492193
2321.5	-0.466314
2321.73	0.50643
2321.96	4.37768
2322.2	3.4226
2322.43	-1.39778
2322.66	4.4107
2322.9	5.3829
2323.13	5.38393
2323.36	8.288
2323.6	2.49197
2323.83	8.29728
2324.06	5.40109
2324.3	4.43738
2324.53	6.37231
2324.76	7.34003
2325	9.26765
2325.23	15.0575
2325.46	17.9434
2325.7	16.9696
2325.93	21.7916
2326.16	24.6808
2326.4	39.1513
2326.63	55.5453
2326.86	67.1079
2327.09	124.968
2327.33	158.692
2327.56	191.436
2327.79	189.478
2328.03	133.537
2328.26	102.68
2328.49	74.7368
2328.73	47.7514
2328.96	33.2967
2329.19	31.3594
2329.43	18.8243
2329.66	19.7774
2329.89	20.7379
2330.13	14.9587
2330.36	13.039
2330.59	11.1113
2330.82	8.22038
2331.06	1.47738
2331.29	2.44074
2331.52	2.44392
2331.76	4.3757
2331.99	2.45504
2332.22	2.46288
2332.46	2.45637
2332.69	4.37828
2332.92	2.4489
2333.16	-0.442698
2333.39	0.517691
2333.62	-1.41004
2333.85	-0.449316
2334.09	-2.37584
2334.32	0.508722
2334.55	0.505051
2334.79	2.42283
2335.02	-2.38975
2335.25	3.37858
2335.48	4.33972
2335.72	-2.39287
2335.95	1.45499
2336.18	1.45716
2336.41	0.494835
2336.65	0.492289
2336.88	2.41385
2337.11	-1.43334
2337.34	-0.47278
2337.58	4.33307
2337.81	2.40894
2338.04	-1.43884
2338.28	1.443
2338.51	1.44149
2338.74	-0.482512
2338.97	0.477453
2339.21	0.477915
2339.44	1.43919
2339.67	0.477251
2339.91	2.39812
2340.14	-0.488224
2340.37	-3.37511
2340.6	1.42446
2340.84	1.41891
2341.07	2.37237
2341.3	5.2441
2341.53	2.35347
2341.77	-1.49639
2342	-5.34159
2342.23	0.407789
2342.46	-0.556915
2342.7	1.35527
2342.93	-0.566717
2343.16	1.34728
2343.39	0.38633
2343.63	-0.573925
2343.86	-2.49422
2344.09	2.29544
2344.32	0.376566
2344.56	4.21057
2344.79	0.374645
2345.02	0.371494
2345.25	6.11877
2345.49	1.32047
2345.72	4.18845
2345.95	1.30374
2346.18	0.338043
2346.41	2.24572
2346.65	0.325325
2346.88	2.23594
2347.11	-2.55652
2347.34	1.26805
2347.58	4.13472
2347.81	-1.61381
2348.04	3.17017
2348.27	4.12568
2348.5	-1.62027
2348.74	1.25072
2348.97	3.1619
2349.2	4.11264
2349.43	3.14602
2349.67	-0.698633
2349.9	3.11279
2350.13	-0.730682
2350.36	-1.70567
2350.59	3.0466
2350.83	1.09749
2351.06	1.98794
2351.29	1.07294
2351.52	-3.62382
2351.75	0.222855
2351.99	3.98674
2352.22	2.9939
2352.45	1.08171
2352.68	2.03367
2352.91	-1.80519
2353.15	3.88591
2353.38	2.90645
2353.61	1.95454
2353.84	4.80341
2354.07	0.0286903
2354.31	-3.78768
2354.54	1.9191
2354.77	-0.939262
2355	0.965115
2355.23	2.86269
2355.47	-0.00517082
2355.7	-0.967834
2355.93	-0.978016
2356.16	1.86874
2356.39	-3.85838
2356.63	-1.0174
2356.86	-0.0857849
2357.09	0.847237
2357.32	-0.117979
2357.55	-0.131203
2357.79	-1.09519
2358.02	-1.10797
2358.25	2.68115
2358.48	-2.08332
2358.71	-1.14449
2358.94	0.740608
2359.18	-0.222054
2359.41	0.715925
2359.64	-0.245804
2359.87	3.53976
2360.1	-0.274477
2360.33	-2.1896
2360.57	3.48915
2360.8	3.47126
2361.03	2.50436
2361.26	-3.20509
2361.49	-1.32571
2361.72	-2.29171
2361.96	3.37736
2362.19	-1.38047
2362.42	-2.34716
2362.65	-0.471786
2362.88	-2.38415
2363.11	1.3848
2363.34	-0.526279
2363.58	0.402729
2363.81	-0.560213
2364.04	-5.30766
2364.27	2.24434
2364.5	-5.3413
2364.73	1.26169
2364.97	1.24297
