#Acq. time (s)=	30
#Accumulations=	2
#Range (cm-¹)=	1200...2365
#Windows=	3
#Auto scanning=	Off
#Autofocus=	Off
#Macrospot=	Off
#AutoExposure=	Off
#Spike filter=	Multiple accum.
#Delay time (s)=	2
#Binning=	1
#Readout mode=	Signal
#DeNoise=	Off
#ICS correction=	On
#Dark correction=	Off
#Inst. Process=	Off
#Detector Gain=	Best Dynamic
#Detector ADC=	50 kHz HS
#Detector temperature (°C)=	-60.09
#Instrument=	LabRAM HR Evol
#Detector=	SIN-EM FIVIS
#Objective=	x100_VIS_LWD
#Grating=	1800 (450-850nm)
#ND Filter=	100%
#Laser=	532nm_Edge
#Hole=	100.021
#Temperature=	0
#Range=	Visible
#StageXY=	75x50mm Scan+
#StageZ=	Z motor
#X (µm)=	0
#Y (µm)=	0
#Z (µm)=	-56.4
#Full time(mm:ss)=	3:17
#Project=	21_11_26
#Sample=	BU19(2)w
#Site=	
#Title=	BU19(2)w-A-FF2b-FI01-V_1800 (450-850nm)_532nm_Edge_100%_x100_VIS_LWD_H100um_30sX2
#Remark=	
#Date=	26.11.2021 16:06
#Acquired=	26.11.2021 16:06:58
#Base:Fit=	16.12.2021 16:00:56
#Base:Fit=	16.12.2021 16:09:03
#Base:Sub=	16.12.2021 16:09:05
1202.72	8.14634
1203	5.19092
1203.28	2.1289
1203.56	2.21602
1203.84	3.36349
1204.11	-2.99634
1204.39	5.7037
1204.67	3.68773
1204.95	3.82567
1205.23	6.08447
1205.5	5.1007
1205.78	0.89019
1206.06	11.7067
1206.34	9.6333
1206.61	4.34351
1206.89	-8.44765
1207.17	6.63186
1207.45	8.84998
1207.73	-1.77326
1208	6.8786
1208.28	6.96885
1208.56	-0.437813
1208.84	-1.43089
1209.11	2.92487
1209.39	-2.34532
1209.67	-0.120789
1209.95	4.24654
1210.23	-6.3593
1210.5	2.26681
1210.78	-5.15739
1211.06	0.23951
1211.34	-2.90366
1211.61	-3.9156
1211.89	-1.72221
1212.17	-8.07161
1212.45	7.9707
1212.72	-6.89618
1213	0.616882
1213.28	-4.65829
1213.56	0.724388
1213.83	1.85057
1214.11	2.96801
1214.39	-4.41132
1214.67	-7.53529
1214.94	-4.2746
1215.22	1.1124
1215.5	-3.08622
1215.78	7.6171
1216.05	6.60573
1216.33	1.32158
1216.61	2.41433
1216.89	5.62547
1217.16	3.52082
1217.44	4.61173
1217.72	-4.92041
1218	3.60532
1218.27	1.51247
1218.55	6.8507
1218.83	-0.549026
1219.1	0.54908
1219.38	-4.71705
1219.66	0.624695
1219.94	-8.89046
1220.21	-1.43662
1220.49	1.78309
1220.77	-5.60207
1221.04	5.03779
1221.32	6.12679
1221.6	-4.45543
1221.88	-1.25361
1222.15	-0.182419
1222.43	-1.23956
1222.71	9.34588
1222.98	-4.42606
1223.26	-0.200005
1223.54	-3.37895
1223.81	8.24404
1224.09	-3.38187
1224.37	-3.38251
1224.65	-1.26408
1224.92	1.91218
1225.2	-2.29816
1225.48	-5.44518
1225.76	6.1974
1226.03	-0.108521
1226.31	-2.19114
1226.59	2.04646
1226.86	-3.2209
1227.14	-3.21833
1227.42	-7.43702
1227.69	-9.56802
1227.97	0.919579
1228.25	-3.32745
1228.52	2.95853
1228.8	-4.46758
1229.08	0.741898
1229.35	-2.40636
1229.63	-7.47785
1229.91	4.29134
1230.18	5.27695
1230.46	-1.1155
1230.74	0.97049
1231.01	-5.33497
1231.29	10.4187
1231.57	4.99744
1231.84	2.91476
1232.12	1.86569
1232.4	0.814827
1232.67	2.90883
1232.95	-1.29424
1233.23	0.803375
1233.5	7.0988
1233.78	0.793564
1234.06	7.09988
1234.33	0.802383
1234.61	2.9095
1234.89	-2.33569
1235.16	-1.27544
1235.44	-2.3242
1235.71	6.08819
1235.99	-7.57378
1236.27	5.04379
1236.54	6.088
1236.82	1.86619
1237.1	3.94915
1237.37	6.02586
1237.65	-0.313187
1237.93	1.75129
1238.2	9.06286
1238.48	-0.422073
1238.76	7.9329
1239.03	-2.58794
1239.31	-6.80548
1239.58	-0.535461
1239.86	9.92837
1240.14	2.57349
1240.41	-1.63381
1240.69	2.54633
1240.97	3.58411
1241.24	-0.617722
1241.52	0.420166
1241.79	1.44764
1242.07	9.80347
1242.35	4.5396
1242.62	-1.76113
1242.9	9.75645
1243.18	1.36842
1243.45	10.7979
1243.73	5.53947
1244	6.57238
1244.28	0.271484
1244.56	8.64046
1244.83	1.28004
1245.11	-1.88945
1245.39	13.7956
1245.66	8.5165
1245.94	9.51601
1246.21	6.32789
1246.49	-2.07689
1246.76	3.1321
1247.04	8.34735
1247.32	12.5134
1247.59	11.44
1247.87	14.5586
1248.14	11.3896
1248.42	18.6593
1248.7	14.437
1248.97	11.2749
1249.25	17.5355
1249.52	3.92456
1249.8	9.12807
1250.08	14.3339
1250.35	10.1306
1250.63	6.95407
1250.9	10.0473
1251.18	8.96122
1251.45	12.0576
1251.73	10.9756
1252.01	10.9386
1252.28	10.9008
1252.56	15.0396
1252.83	6.64825
1253.11	6.60841
1253.39	0.308624
1253.66	8.62691
1253.94	1.30082
1254.21	9.64087
1254.49	10.6792
1254.76	15.8968
1255.04	9.61768
1255.31	12.728
1255.59	20.0227
1255.87	16.8675
1256.14	15.7963
1256.42	18.9111
1256.69	12.6304
1256.97	22.0218
1257.24	24.0934
1257.52	24.0658
1257.79	30.2948
1258.07	46.9708
1258.35	39.6296
1258.62	40.6414
1258.9	28.0782
1259.17	19.6809
1259.45	30.0932
1259.72	24.8646
1260	32.1655
1260.27	38.4557
1260.55	35.271
1260.82	45.6603
1261.1	41.4194
1261.37	54.9304
1261.65	59.0592
1261.92	68.4459
1262.2	84.2178
1262.48	89.6375
1262.75	97.0454
1263.02	116.581
1263.3	140.318
1263.58	152.709
1263.85	157.09
1264.13	147.849
1264.4	129.222
1264.68	107.338
1264.95	94.6558
1265.23	78.9151
1265.5	54.8559
1265.78	59.0042
1266.05	37.0167
1266.33	35.951
1266.6	31.7596
1266.88	36.9801
1267.15	33.8464
1267.43	23.3979
1267.7	37.0015
1267.98	29.6934
1268.25	33.896
1268.53	34.9744
1268.8	27.6662
1269.08	27.6685
1269.35	15.0955
1269.63	23.4715
1269.9	21.3517
1270.18	26.549
1270.45	19.1685
1270.73	34.8342
1271	34.7892
1271.28	15.9145
1271.55	38.9132
1271.83	23.1857
1272.1	20.0375
1272.38	23.184
1272.65	20.056
1272.93	20.0781
1273.2	26.3739
1273.47	25.3382
1273.75	27.4472
1274.03	32.7024
1274.3	27.4735
1274.57	26.4274
1274.85	32.7114
1275.12	29.5456
1275.4	33.7275
1275.67	33.726
1275.95	31.6324
1276.22	28.4903
1276.5	40.0491
1276.77	28.5097
1277.05	27.4677
1277.32	27.4701
1277.6	45.3417
1277.87	41.1573
1278.14	45.3781
1278.42	50.6472
1278.69	49.6088
1278.97	58.0479
1279.24	63.3186
1279.52	68.5914
1279.79	88.5596
1280.07	92.7433
1280.34	109.541
1280.61	123.196
1280.89	153.704
1281.16	214.726
1281.44	272.66
1281.71	348.54
1281.99	494.905
1282.26	702.247
1282.53	981.279
1282.81	1295.14
1283.08	1721.22
1283.36	2174.85
1283.63	2485.09
1283.91	2550.35
1284.18	2279.17
1284.45	1684.3
1284.73	1207.53
1285	786.261
1285.28	513.33
1285.55	332.94
1285.83	242.249
1286.1	174.868
1286.37	142.274
1286.65	118.047
1286.92	88.5257
1287.2	86.4145
1287.47	77.9787
1287.75	66.3737
1288.02	52.6632
1288.29	45.2802
1288.57	52.6435
1288.84	38.9646
1289.12	38.9718
1289.39	38.9887
1289.66	36.9037
1289.94	41.1369
1290.21	39.0557
1290.49	35.9163
1290.76	35.9162
1291.03	29.5845
1291.31	27.473
1291.58	20.1
1291.86	31.6859
1292.13	25.3646
1292.4	25.3677
1292.68	24.3238
1292.95	22.2141
1293.22	17.9967
1293.5	27.4837
1293.77	16.9873
1294.05	17.0314
1294.32	30.7843
1294.59	19.2021
1294.87	22.3709
1295.14	22.3689
1295.42	10.7916
1295.69	11.891
1295.96	16.1701
1296.24	25.7533
1296.51	13.1215
1296.79	21.5942
1297.06	22.6612
1297.33	14.2024
1297.61	18.4209
1297.88	12.07
1298.15	14.1701
1298.43	4.65002
1298.7	12.062
1298.97	8.89594
1299.25	11.0027
1299.52	7.83306
1299.79	5.71806
1300.07	6.78333
1300.34	16.3112
1300.62	3.66211
1300.89	8.95536
1301.16	4.73972
1301.44	14.2509
1301.71	13.2122
1301.98	13.2406
1302.25	5.87479
1302.53	15.4022
1302.8	8.02432
1303.08	3.81187
1303.35	11.2144
1303.62	-3.56704
1303.9	4.88174
1304.17	11.2293
1304.44	8.07906
1304.72	-0.352631
1304.99	4.94202
1305.26	-2.44262
1305.54	7.06101
1305.81	10.2245
1306.08	4.94579
1306.35	1.7779
1306.63	0.724998
1306.9	6.00901
1307.18	2.86342
1307.45	4.99882
1307.72	5.0203
1308	8.20271
1308.27	5.05746
1308.54	-0.191849
1308.81	1.933
1309.09	3.01269
1309.36	0.936676
1309.63	12.5752
1309.91	-1.1084
1310.18	2.08681
1310.45	4.21725
1310.73	-8.42906
1311	9.53321
1311.27	2.17262
1311.55	-4.132
1311.82	7.50452
1312.09	-3.01985
1312.37	5.46301
1312.64	-6.11472
1312.91	3.41824
1313.18	-3.95158
1313.46	-4.99409
1313.73	8.75266
1314	-0.729797
1314.28	6.67911
1314.55	2.48313
1314.82	2.51469
1315.09	-9.06303
1315.37	-0.580582
1315.64	-1.59959
1315.91	1.60654
1316.18	6.9262
1316.46	0.613617
1316.73	1.6934
1317	1.71875
1317.28	0.689514
1317.55	-8.78562
1317.82	-1.35251
1318.09	-1.31507
1318.37	2.94582
1318.64	2.97955
1318.91	7.23798
1319.18	0.930504
1319.46	-3.26611
1319.73	-1.12484
1320	6.29869
1320.28	-0.00193787
1320.55	-8.42028
1320.82	-7.33517
1321.09	-2.03136
1321.37	1.15297
1321.64	-4.11473
1321.91	-6.21532
1322.18	5.41306
1322.46	-1.96074
1322.73	-0.881905
1323	6.5244
1323.27	5.49258
1323.55	-7.1396
1323.82	-3.93279
1324.09	5.59616
1324.36	1.41594
1324.64	-0.659142
1324.91	2.54192
1325.18	0.467484
1325.45	1.56419
1325.73	0.526848
1326	-1.57838
1326.27	0.521912
1326.54	-0.547806
1326.81	-8.94901
1327.09	-1.5516
1327.36	-10.959
1327.63	-1.39855
1327.9	2.88161
1328.18	0.841637
1328.45	4.07425
1328.72	-3.2365
1328.99	4.21223
1329.27	4.26029
1329.54	2.18095
1329.81	5.39541
1330.08	0.157883
1330.35	-1.91669
1330.63	1.2795
1330.9	0.252327
1331.17	-0.778358
1331.44	-9.19122
1331.71	2.41534
1331.99	1.37023
1332.26	-0.71949
1332.53	-2.8026
1332.8	-0.677177
1333.07	-0.659767
1333.35	7.7692
1333.62	-1.67463
1333.89	-4.80562
1334.16	10.9763
1334.43	1.54457
1334.71	-3.68064
1334.98	5.79423
1335.25	-4.67269
1335.52	0.605461
1335.79	0.636734
1336.07	10.1095
1336.34	0.702858
1336.61	-1.35945
1336.88	-10.7591
1337.15	-2.33318
1337.43	-1.24496
1337.7	-6.44487
1337.97	0.931145
1338.24	-3.23104
1338.51	-3.20003
1338.78	2.07435
1339.06	2.1096
1339.33	-2.03889
1339.6	0.101639
1339.87	-5.08239
1340.14	2.30074
1340.42	-9.1674
1340.69	-3.87932
1340.96	-6.96931
1341.23	5.64616
1341.5	3.59802
1341.77	8.8782
1342.04	-2.59819
1342.32	7.90928
1342.59	7.94239
1342.86	-1.44607
1343.13	3.81618
1343.4	-9.74099
1343.67	-0.281731
1343.95	3.95064
1344.22	-2.27337
1344.49	-0.128464
1344.76	-0.076416
1345.03	11.4724
1345.3	0.00913239
1345.58	0.0452652
1345.85	11.5698
1346.12	4.28767
1346.39	4.31404
1346.66	4.32817
1346.93	3.31284
1347.2	9.60273
1347.47	2.32974
1347.75	-1.80824
1348.02	5.52978
1348.29	8.70072
1348.56	3.53659
1348.83	8.79626
1349.1	-3.66618
1349.37	-10.9168
1349.65	6.83323
1349.92	4.79067
1350.19	1.70798
1350.46	5.91427
1350.73	8.03693
1351	5.99142
1351.27	-1.25539
1351.54	9.19065
1351.81	2.986
1352.09	8.23559
1352.36	2.05154
1352.63	4.19662
1352.9	5.31004
1353.17	9.55257
1353.44	4.41923
1353.71	9.74931
1353.98	2.58559
1354.25	7.77979
1354.53	2.51694
1354.8	10.8089
1355.07	3.60252
1355.34	1.58832
1355.61	7.85287
1355.88	1.66474
1356.15	0.708961
1356.42	10.1241
1356.69	10.1647
1356.96	16.4472
1357.24	10.2665
1357.51	13.4326
1357.78	10.3651
1358.05	17.6787
1358.32	5.26592
1358.59	13.6138
1358.86	12.621
1359.13	9.55075
1359.4	16.8554
1359.67	11.7167
1359.94	9.69167
1360.22	9.73047
1360.49	15.9848
1360.76	20.1649
1361.03	11.9203
1361.3	5.75862
1361.57	16.176
1361.84	12.0898
1362.11	16.2884
1362.38	12.196
1362.65	20.5314
1362.92	16.4415
1363.19	13.3931
1363.46	20.7073
1363.73	23.8908
1364	16.7134
1364.28	21.9647
1364.55	26.1683
1364.82	36.5813
1365.09	33.5242
1365.36	33.567
1365.63	24.2879
1365.9	27.4322
1366.17	26.437
1366.44	24.4079
1366.71	22.3784
1366.98	23.4476
1367.25	23.4773
1367.52	21.4577
1367.79	32.8786
1368.06	29.8535
1368.33	27.856
1368.6	53.767
1368.87	79.6814
1369.15	125.242
1369.41	139.795
1369.68	101.614
1369.95	63.4025
1370.23	47.9436
1370.5	34.5555
1370.77	32.5246
1371.04	27.4079
1371.31	31.5853
1371.58	27.4891
1371.85	35.7791
1372.12	28.5766
1372.39	34.7923
1372.66	30.6942
1372.93	33.8242
1373.2	32.839
1373.47	26.7045
1373.74	37.0612
1374.01	28.8698
1374.28	35.1071
1374.55	43.4056
1374.82	39.3407
1375.09	36.3052
1375.36	45.6258
1375.63	41.5731
1375.9	47.8315
1376.17	35.5299
1376.44	47.9623
1376.71	52.1163
1376.98	36.7047
1377.25	52.1743
1377.52	51.1595
1377.79	41.9761
1378.06	55.4495
1378.33	49.3831
1378.6	69.0798
1378.87	66.1254
1379.14	62.0874
1379.41	62.1465
1379.68	71.471
1379.95	55.0238
1380.22	77.733
1380.49	76.7049
1380.76	70.4781
1381.03	86.9391
1381.3	86.9458
1381.57	97.3202
1381.84	97.3418
1382.11	93.2186
1382.38	103.476
1382.65	108.604
1382.92	115.79
1383.19	125.019
1383.46	140.417
1383.73	162.983
1384	174.285
1384.27	191.744
1384.54	235.902
1384.81	262.651
1385.08	344.817
1385.34	439.368
1385.61	569.958
1385.88	836.049
1386.15	1215.17
1386.42	1860.26
1386.69	2968.92
1386.96	4366.2
1387.23	5486.82
1387.5	5353.17
1387.77	4016.28
1388.04	2512.32
1388.31	1433.67
1388.58	856.341
1388.85	555.508
1389.12	381.895
1389.39	297.022
1389.66	220.105
1389.93	198.638
1390.2	156.524
1390.46	146.158
1390.73	121.535
1391	107.237
1391.27	102.107
1391.54	93.9564
1391.81	83.7577
1392.08	76.6157
1392.35	79.7153
1392.62	72.5783
1392.89	65.4514
1393.16	67.5444
1393.43	56.3323
1393.7	53.3128
1393.97	50.2949
1394.23	48.3016
1394.5	49.3801
1394.77	54.5523
1395.04	51.5406
1395.31	48.546
1395.58	45.5571
1395.85	34.3728
1396.12	48.7714
1396.39	41.6653
1396.66	44.7894
1396.93	39.7223
1397.2	40.795
1397.46	42.8839
1397.73	43.9499
1398	37.8653
1398.27	48.1543
1398.54	45.1555
1398.81	38.0694
1399.08	34.046
1399.35	40.252
1399.62	49.5413
1399.89	32.217
1400.16	35.3585
1400.42	36.4431
1400.69	38.5657
1400.96	45.8203
1401.23	34.6303
1401.5	38.784
1401.77	37.8336
1402.04	38.9182
1402.31	31.8423
1402.58	37.0818
1402.84	34.126
1403.11	42.4386
1403.38	38.4271
1403.65	34.3966
1403.92	41.6452
1404.19	45.7905
1404.46	49.895
1404.73	39.7121
1404.99	44.8933
1405.26	51.0965
1405.53	65.4962
1405.8	65.5334
1406.07	68.6476
1406.34	68.6871
1406.61	75.9091
1406.87	99.5318
1407.14	124.199
1407.41	125.298
1407.68	158.179
1407.95	199.261
1408.22	237.272
1408.49	255.805
1408.76	292.799
1409.02	301.089
1409.29	254.006
1409.56	199.731
1409.83	157.755
1410.1	117.82
1410.37	100.441
1410.63	80.9818
1410.9	59.4702
1411.17	54.3672
1411.44	44.1515
1411.71	39.0693
1411.98	35.0168
1412.25	31.9986
1412.51	35.1435
1412.78	32.1543
1413.05	20.9882
1413.32	20.1153
1413.59	27.4136
1413.86	26.3784
1414.12	15.0459
1414.39	23.3239
1414.66	19.3318
1414.93	20.4521
1415.2	16.3979
1415.47	20.5643
1415.73	19.5953
1416	14.521
1416.27	14.5842
1416.54	20.8089
1416.81	20.8736
1417.07	22.9926
1417.34	16.8955
1417.61	6.68703
1417.88	13.9429
1418.15	11.9479
1418.42	17.1434
1418.68	23.3681
1418.95	15.2067
1419.22	12.1802
1419.49	11.2097
1419.76	16.3958
1420.02	16.4377
1420.29	12.3691
1420.56	9.3304
1420.83	17.5864
1421.1	20.7053
1421.36	16.6399
1421.63	8.47736
1421.9	18.7999
1422.17	12.7143
1422.44	9.71128
1422.7	13.8975
1422.97	7.82238
1423.24	20.2779
1423.51	14.2218
1423.77	21.2989
1424.04	8.88717
1424.31	17.1622
1424.58	20.2183
1424.85	19.2476
1425.11	17.2729
1425.38	13.2753
1425.65	18.4654
1425.92	9.27821
1426.19	19.6124
1426.45	7.34985
1426.72	17.6474
1426.99	4.35049
1427.26	8.48668
1427.52	10.5694
1427.79	13.6677
1428.06	13.6965
1428.33	11.6894
1428.59	0.473961
1428.86	14.8605
1429.13	8.77256
1429.4	1.66071
1429.67	12.9845
1429.93	10.9973
1430.2	5.93955
1430.47	8.05658
1430.74	7.0955
1431	7.16523
1431.27	15.4496
1431.54	11.4193
1431.81	2.24375
1432.07	3.32011
1432.34	6.43792
1432.61	6.47289
1432.87	7.53877
1433.14	14.7479
1433.41	3.49451
1433.68	6.5928
1433.95	0.47179
1434.21	8.69949
1434.48	9.76565
1434.75	-0.400074
1435.01	7.85702
1435.28	6.88343
1435.55	12.0555
1435.82	6.97837
1436.08	5.99895
1436.35	6.04279
1436.62	8.13523
1436.89	4.07928
1437.15	2.07206
1437.42	6.21142
1437.69	6.257
1437.95	5.27293
1438.22	3.26835
1438.49	9.46314
1438.76	6.44631
1439.02	2.40042
1439.29	7.57097
1439.56	4.54665
1439.82	4.6016
1440.09	-2.51363
1440.36	5.74812
1440.63	3.75027
1440.89	1.74852
1441.16	0.769062
1441.43	4.91917
1441.69	7.01046
1441.96	1.919
1442.23	5.0343
1442.49	3.03989
1442.76	8.21315
1443.03	3.14136
1443.3	1.12711
1443.56	16.5423
1443.83	2.22301
1444.1	3.28611
1444.36	4.35251
1444.63	9.52545
1444.9	6.51019
1445.16	1.43913
1445.43	5.60357
1445.7	9.74554
1445.97	4.65279
1446.23	5.71609
1446.5	4.72797
1446.77	4.76571
1447.03	9.93106
1447.3	5.86599
1447.57	3.8512
1447.83	4.91085
1448.1	2.89605
1448.37	1.91168
1448.63	14.2669
1448.9	6.11807
1449.17	7.18811
1449.43	1.07397
1449.7	6.23804
1449.97	6.27079
1450.23	-0.875656
1450.5	10.4324
1450.77	5.34165
1451.03	9.47703
1451.3	14.6362
1451.57	0.322571
1451.83	3.43072
1452.1	1.41543
1452.37	4.52396
1452.63	-2.61122
1452.9	5.62438
1453.17	2.59193
1453.43	1.61209
1453.7	-0.394241
1453.97	3.74354
1454.23	2.75283
1454.5	-0.28653
1454.77	-1.27341
1455.03	3.88775
1455.3	4.94817
1455.56	7.03086
1455.83	-0.1035
1456.1	-4.15686
1456.36	1.00903
1456.63	-9.20398
1456.9	0.0526237
1457.16	-0.944553
1457.43	2.15712
1457.7	2.1893
1457.96	1.19725
1458.23	2.25512
1458.49	-2.83098
1458.76	2.3276
1459.03	-2.75655
1459.29	-2.71898
1459.56	-4.73157
1459.82	4.52552
1460.09	-3.63848
1460.36	7.66239
1460.62	2.57038
1460.89	1.57596
1461.16	0.58004
1461.42	-1.44103
1461.69	-1.41372
1461.95	2.7081
1462.22	2.73255
1462.49	3.77955
1462.75	-2.33813
1463.02	-3.33855
1463.28	-1.27093
1463.55	-5.34056
1463.82	-6.34008
1464.08	-0.175064
1464.35	-1.14994
1464.61	-0.0720482
1464.88	1.00131
1465.15	-3.03878
1465.41	7.18902
1465.68	-0.0334702
1465.94	-0.0431671
1466.21	-3.07845
1466.48	-2.01221
1466.74	5.15902
1467.01	-1.97643
1467.27	1.10804
1467.54	-2.93762
1467.8	-1.89025
1468.07	0.176758
1468.34	4.28474
1468.6	-3.8469
1468.87	2.30184
1469.13	-1.75164
1469.4	0.312641
1469.67	6.45425
1469.93	1.37466
1470.2	-2.68587
1470.46	4.46796
1470.73	0.413063
1470.99	-3.63998
1471.26	1.479
1471.53	0.481415
1471.79	1.51824
1472.06	-3.55275
1472.32	2.58134
1472.59	0.570354
1472.85	1.61457
1473.12	4.69487
1473.39	4.71786
1473.65	-1.37101
1473.92	-2.36924
1474.18	-2.34828
1474.45	5.81602
1474.71	-1.28137
1474.98	1.80235
1475.24	-0.203861
1475.51	-6.28432
1475.78	3.91807
1476.04	1.90343
1476.31	-0.113098
1476.57	2.95987
1476.84	3.99789
1477.1	-2.08898
1477.37	0.97942
1477.63	4.05096
1477.9	5.09062
1478.16	-0.987965
1478.43	1.06444
1478.69	4.12876
1478.96	0.0790749
1479.22	-4.98601
1479.49	2.14343
1479.76	0.125446
1480.02	-0.877453
1480.29	2.18243
1480.55	-1.87346
1480.82	-1.86397
1481.08	-1.85034
1481.35	-2.84657
1481.61	-4.86074
1481.88	1.25301
1482.14	6.35683
1482.41	-0.715355
1482.67	1.3467
1482.94	-1.66946
1483.2	1.3979
1483.47	-0.605221
1483.73	-1.59609
1484	-0.559204
1484.26	-1.55527
1484.53	-2.56818
1484.79	-4.60175
1485.06	-5.6411
1485.32	-0.617832
1485.59	4.43739
1485.85	1.38472
1486.12	0.506489
1486.38	-1.48652
1486.65	-2.46273
1486.91	-3.50404
1487.18	1.60456
1487.44	3.65841
1487.71	0.623161
1487.97	-0.381844
1488.24	-1.38216
1488.5	-8.45883
1488.77	4.71187
1489.03	0.669342
1489.3	-4.38086
1489.56	-5.37913
1489.83	3.74109
1490.09	0.72065
1490.36	1.74995
1490.62	-5.3145
1490.89	1.77863
1491.15	1.78633
1491.42	1.79403
1491.68	-3.24861
1491.95	0.810577
1492.21	3.86046
1492.48	0.8465
1492.74	2.88371
1493	2.89758
1493.27	-0.120407
1493.53	-2.12598
1493.8	-10.1998
1494.06	1.94476
1494.33	-2.08197
1494.59	-1.05218
1494.86	-7.0985
1495.12	3.02496
1495.39	2.02153
1495.65	-1.00917
1495.92	-1.01072
1496.18	2.02055
1496.45	5.05548
1496.71	-0.994225
1496.97	0.024147
1497.24	-0.977055
1497.5	-0.96302
1497.77	-3.97693
1498.03	-0.937584
1498.3	-0.924709
1498.56	-1.91956
1498.82	0.113705
1499.09	2.14753
1499.35	1.15394
1499.62	4.19868
1499.88	4.21647
1500.15	-2.83277
1500.41	-0.798904
1500.68	6.28077
1500.94	0.234486
1501.2	6.30275
1501.47	1.26254
1501.73	4.29329
1502	-1.75254
1502.26	3.30399
1502.52	1.29584
1502.79	-1.7238
1503.05	1.30477
1503.32	-1.71886
1503.58	-0.704086
1503.85	-0.701027
1504.11	-1.69813
1504.37	-4.70771
1504.64	-3.6862
1504.9	-3.67493
1505.17	4.40127
1505.43	-5.67632
1505.7	-3.65566
1505.96	0.374104
1506.22	2.38274
1506.49	-3.65505
1506.75	-0.623894
1507.02	3.4181
1507.28	-6.64086
1507.54	1.43184
1507.81	1.44377
1508.07	-1.57008
1508.34	-5.59423
1508.6	-0.549191
1508.86	2.48381
1509.13	-1.53578
1509.39	-1.52601
1509.66	-1.5177
1509.92	2.52153
1510.18	-5.52631
1510.45	4.56315
1510.71	-2.49149
1510.98	-3.49911
1511.24	2.54231
1511.5	-0.484039
1511.77	-3.5142
1512.03	1.50101
1512.29	0.478172
1512.56	0.462624
1512.82	1.45497
1513.08	-4.576
1513.35	0.44223
1513.61	-0.563431
1513.88	-0.560024
1514.14	-5.56235
1514.4	-0.517147
1514.67	-0.505726
1514.93	1.50468
1515.2	-2.51641
1515.46	2.49804
1515.72	0.484669
1515.99	-5.54358
1516.25	-1.53726
1516.51	-8.56079
1516.78	2.47223
1517.04	-1.53657
1517.3	4.48222
1517.57	1.47879
1517.83	-1.52262
1518.09	-3.51916
1518.36	3.51448
1518.62	-5.504
1518.88	0.522427
1519.15	-7.49424
1519.41	1.54285
1519.67	2.55493
1519.94	5.57221
1520.2	3.56926
1520.47	2.56625
1520.73	3.57056
1520.99	-4.44748
1521.26	1.58087
1521.52	-3.42734
1521.78	-0.411304
1522.05	-2.41575
1522.31	4.60733
1522.57	-0.410252
1522.84	-1.41496
1523.1	3.5989
1523.36	2.59151
1523.62	-4.43712
1523.89	0.560177
1524.15	-5.45997
1524.41	-1.45879
1524.68	-1.46343
1524.94	1.53652
1525.2	-2.46059
1525.47	-0.452564
1525.73	2.55656
1525.99	1.56491
1526.26	0.574757
1526.52	-1.41426
1526.78	-2.40472
1527.05	1.61085
1527.31	-2.39738
1527.57	3.61203
1527.84	6.61753
1528.1	5.61309
1528.36	-1.40322
1528.63	3.60282
1528.89	3.59932
1529.15	0.591492
1529.41	-2.41414
1529.68	1.59324
1529.94	1.5916
1530.2	-0.417473
1530.47	3.58736
1530.73	-0.412575
1530.99	-1.40359
1531.25	7.6236
1531.52	-1.38525
1531.78	-3.38737
1532.04	-1.38531
1532.31	1.62276
1532.57	2.61901
1532.83	0.621498
1533.09	-4.37666
1533.36	-0.350521
1533.62	1.67023
1533.88	-2.33488
1534.15	0.678471
1534.41	0.678288
1534.67	1.6789
1534.94	-3.33989
1535.2	3.67598
1535.46	-2.34557
1535.72	-0.348808
1535.99	-10.3936
1536.25	-7.39931
1536.51	-2.40034
1536.77	-0.413403
1537.04	-0.431072
1537.3	-0.446785
1537.56	2.54755
1537.82	3.53574
1538.09	-3.46622
1538.35	-0.475731
1538.61	3.50787
1538.87	0.50293
1539.14	0.497303
1539.4	4.50832
1539.66	-2.46639
1539.92	4.57235
1540.19	-1.41283
1540.45	2.61301
1540.71	7.64536
1540.97	3.64774
1541.24	-2.3653
1541.5	0.62207
1541.76	-0.384312
1542.02	-1.40079
1542.29	3.59556
1542.55	-0.425426
1542.81	1.56387
1543.07	-0.451614
1543.34	-1.46499
1543.6	-2.47891
1543.86	-3.49583
1544.12	3.48757
1544.39	-2.51297
1544.65	-0.512398
1544.91	4.49657
1545.17	4.50954
1545.43	-0.486122
1545.7	2.53348
1545.96	0.538513
1546.22	2.54517
1546.48	2.54787
1546.74	0.538818
1547.01	3.54337
1547.27	1.5425
1547.53	0.543362
1547.79	0.545357
1548.06	2.53566
1548.32	-0.497009
1548.58	8.51167
1548.84	0.500313
1549.1	-3.4958
1549.37	5.4679
1549.63	-2.58719
1549.89	1.39771
1550.15	-0.579094
1550.42	-0.534599
1550.68	-0.468433
1550.94	-1.42503
1551.2	0.624702
1551.46	0.589127
1551.73	0.589996
1551.99	0.57666
1552.25	-3.4564
1552.51	1.5792
1552.77	4.60837
1553.03	-7.45415
1553.3	-2.44934
1553.56	5.54081
1553.82	-2.49693
1554.08	-3.50791
1554.34	3.49923
1554.61	4.48318
1554.87	0.452652
1555.13	3.43731
1555.39	1.42293
1555.65	5.42216
1555.91	0.408783
1556.18	0.407227
1556.44	-2.60223
1556.7	-4.61686
1556.96	0.387234
1557.22	2.38905
1557.48	-6.62882
1557.75	0.379662
1558.01	5.38094
1558.27	-0.642826
1558.53	-4.66728
1558.79	-4.68278
1559.06	-1.70004
1559.32	0.281864
1559.58	4.26463
1559.84	1.24878
1560.1	-5.76277
1560.36	1.22319
1560.63	0.213505
1560.89	-1.79426
1561.15	-2.80156
1561.41	-0.808655
1561.67	1.18803
1561.93	0.191917
1562.19	0.199436
1562.46	-2.79237
1562.72	-1.79725
1562.98	-4.80523
1563.24	-4.81419
1563.5	-0.817398
1563.76	4.17243
1564.02	1.16401
1564.29	4.17609
1564.55	0.187637
1564.81	-0.812973
1565.07	7.18382
1565.33	-0.8536
1565.59	2.05497
1565.85	-0.0614738
1566.11	-1.12132
1566.38	0.060585
1566.64	-0.888695
1566.9	0.0813179
1567.16	-0.95454
1567.42	3.07573
1567.68	-3.88971
1567.94	-0.904724
1568.2	-1.94266
1568.47	-1.94326
1568.73	-1.94304
1568.99	-11.9456
1569.25	2.04313
1569.51	1.01942
1569.77	-4.99286
1570.03	-1.00151
1570.29	5.99162
1570.55	-1.00921
1570.82	-1.0148
1571.08	-0.0226021
1571.34	2.96708
1571.6	-4.03861
1571.86	-1.05438
1572.12	1.9279
1572.38	0.921066
1572.64	1.90738
1572.9	0.892857
1573.17	-1.11747
1573.43	-1.13042
1573.69	2.84809
1573.95	-0.159447
1574.21	3.82718
1574.47	5.82629
1574.73	-0.158596
1574.99	-0.153862
1575.25	-1.14741
1575.51	0.855412
1575.78	-0.141712
1576.04	3.85149
1576.3	-1.15533
1576.56	-1.16279
1576.82	1.8229
1577.08	4.79748
1577.34	-2.21862
1577.6	-2.24153
1577.86	-1.26603
1578.12	-1.2873
1578.38	0.68668
1578.64	1.66809
1578.9	0.661522
1579.17	-0.342632
1579.43	1.6441
1579.69	-0.356045
1579.95	1.63388
1580.21	-2.35428
1580.47	-2.35776
1580.73	1.62521
1580.99	-4.36665
1581.25	-0.390114
1581.51	0.592522
1581.77	-5.40125
1582.03	-1.4302
1582.29	0.545921
1582.55	-2.45332
1582.81	-0.470829
1583.07	-4.46592
1583.33	3.4935
1583.59	-6.47548
1583.85	3.47699
1584.11	-6.49431
1584.38	0.47028
1584.64	-4.5125
1584.9	1.46004
1585.16	8.42806
1585.42	-1.54049
1585.68	1.43829
1585.94	4.41831
1586.2	-3.56105
1586.46	-0.591007
1586.72	-2.60035
1586.98	0.370609
1587.24	1.35254
1587.5	2.33552
1587.76	2.32439
1588.02	2.31508
1588.28	3.30352
1588.54	3.30077
1588.8	4.29483
1589.06	3.30034
1589.32	-1.67716
1589.58	3.2994
1589.84	6.2841
1590.1	4.2879
1590.36	-2.68848
1590.62	2.28685
1590.88	0.294224
1591.14	2.28371
1591.4	-4.69574
1591.66	-1.7152
1591.92	0.266541
1592.18	-2.73232
1592.44	3.22381
1592.7	-2.77012
1592.96	0.197453
1593.22	0.183342
1593.48	5.13126
1593.74	-0.860676
1594	1.10046
1594.26	5.05469
1594.52	-0.918617
1594.78	2.05441
1595.04	0.0668869
1595.3	0.0698242
1595.56	1.06325
1595.82	-1.92447
1596.08	7.98047
1596.34	-1.95958
1596.6	2.99979
1596.86	0.0139198
1597.12	1.00235
1597.38	-3.9675
1597.64	0.996845
1597.9	0.000946045
1598.16	-1.00028
1598.42	1.96885
1598.68	2.94662
1598.94	1.93342
1599.2	-2.056
1599.46	2.8915
1599.72	6.84578
1599.98	0.876976
1600.24	3.83825
1600.5	-0.14407
1600.76	-0.15974
1601.02	4.77918
1601.28	1.78312
1601.54	-10.1291
1601.8	7.68061
1602.06	5.67887
1602.32	-3.2486
1602.58	-2.27375
1602.84	0.67886
1603.1	1.65014
1603.36	-0.345402
1603.62	1.6174
1603.88	-0.372776
1604.14	2.58325
1604.4	0.598412
1604.66	2.5705
1604.92	-2.37801
1605.17	1.57143
1605.43	0.577599
1605.69	0.573284
1605.95	-5.36229
1606.21	-2.39633
1606.47	6.50594
1606.73	4.52843
1606.99	-5.36587
1607.25	-4.35537
1607.51	5.4804
1607.77	-4.22733
1608.03	4.14925
1608.29	-4.15267
1608.55	4.67839
1608.81	-1.08026
1609.07	1.2919
1609.32	-0.662769
1609.58	-2.25032
1609.84	2.92201
1610.1	3.54328
1610.36	3.91919
1610.62	2.52944
1610.88	3.22282
1611.14	0.137527
1611.4	-2.0559
1611.66	-2.11852
1611.92	-4.04387
1612.18	-0.700375
1612.44	4.06084
1612.69	0.0972633
1612.95	2.98913
1613.21	7.01601
1613.47	3.55136
1613.73	2.77319
1613.99	-2.05858
1614.25	2.96823
1614.51	0.301605
1614.77	3.24492
1615.03	-2.43295
1615.29	0.321922
1615.54	-3.27911
1615.8	1.90733
1616.06	1.38058
1616.32	2.84519
1616.58	3.91035
1616.84	-1.4357
1617.1	0.738998
1617.36	-0.0627632
1617.62	3.3756
1617.88	5.57637
1618.13	4.69271
1618.39	2.47627
1618.65	6.40369
1618.91	3.34827
1619.17	6.30287
1619.43	-0.0307846
1619.69	1.66055
1619.95	0.726665
1620.2	2.96371
1620.46	1.02647
1620.72	2.26519
1620.98	4.75829
1621.24	3.03843
1621.5	0.908142
1621.76	1.69898
1622.02	2.0148
1622.27	3.73075
1622.53	1.75794
1622.79	-0.517868
1623.05	2.91204
1623.31	3.80001
1623.57	4.91518
1623.83	4.03019
1624.09	3.31242
1624.34	1.16425
1624.6	0.849724
1624.86	2.03045
1625.12	2.93019
1625.38	0.959934
1625.64	-0.27676
1625.9	2.51693
1626.15	2.65565
1626.41	1.31292
1626.67	1.50178
1626.93	2.9523
1627.19	5.98669
1627.45	2.81045
1627.7	5.89014
1627.96	6.2148
1628.22	4.34066
1628.48	2.17114
1628.74	1.26401
1629	0.69558
1629.26	2.18132
1629.51	3.7395
1629.77	4.45284
1630.03	5.5512
1630.29	6.30725
1630.55	4.1348
1630.81	2.51787
1631.06	3.90023
1631.32	4.53125
1631.53	6.86799
1631.79	4.90219
1632.05	0.966736
1632.31	5.89898
1632.57	-0.0197105
1632.84	4.91831
1633.1	0.995197
1633.36	4.91935
1633.62	5.87617
1633.88	4.88216
1634.14	-1.02654
1634.4	4.89109
1634.66	6.86209
1634.93	-0.0392799
1635.19	6.85701
1635.45	0.938301
1635.71	5.86073
1635.97	-0.0592461
1636.23	7.81682
1636.49	3.86652
1636.75	6.81339
1637.02	5.81876
1637.28	1.86854
1637.54	3.82697
1637.8	-1.10311
1638.06	-0.122471
1638.32	3.80909
1638.58	1.83292
1638.84	5.7644
1639.1	5.76271
1639.37	5.76064
1639.63	4.77359
1639.89	5.75546
1640.15	0.830856
1640.41	0.827122
1640.67	1.81081
1640.93	6.74028
1641.19	8.71468
1641.46	-1.13223
1641.72	6.74001
1641.98	-0.159203
1642.24	5.74268
1642.5	2.78498
1642.76	7.70313
1643.02	4.7461
1643.28	3.75843
1643.54	6.70858
1643.8	4.73714
1644.06	7.68415
1644.33	1.77237
1644.59	5.69938
1644.85	2.73988
1645.11	0.769417
1645.37	4.70706
1645.63	2.74439
1645.89	5.69901
1646.15	3.73032
1646.41	0.772331
1646.67	-5.13754
1646.93	5.67876
1647.19	3.70699
1647.46	1.73377
1647.72	6.64527
1647.98	3.6894
1648.24	-0.246136
1648.5	3.68854
1648.76	1.72897
1649.02	2.72107
1649.28	3.72853
1649.54	2.75292
1649.8	1.76268
1650.06	10.6157
1650.32	4.70898
1650.58	3.73856
1650.85	-3.1442
1651.11	3.75845
1651.37	3.76742
1651.63	2.78801
1651.89	5.74673
1652.15	1.80495
1652.41	4.76122
1652.67	1.80659
1652.93	7.71424
1653.19	4.75193
1653.45	2.77872
1653.71	2.7789
1653.97	5.73705
1654.23	9.68382
1654.49	-0.167152
1654.75	4.76241
1655.01	6.73722
1655.27	-2.1274
1655.53	9.71251
1655.8	3.81147
1656.06	2.84271
1656.32	7.78873
1656.57	3.84953
1656.84	-2.06809
1657.1	2.87008
1657.36	-3.05329
1657.62	6.81394
1657.88	1.87437
1658.14	3.84573
1658.4	-3.06466
1658.66	3.83839
1658.92	0.872742
1659.18	6.78534
1659.44	-0.125198
1659.7	3.81363
1659.96	-2.1084
1660.22	1.8264
1660.48	2.81715
1660.74	2.8244
1661	1.84683
1661.26	4.8153
1661.52	3.83939
1661.78	-0.0961304
1662.04	2.86939
1662.3	2.87444
1662.56	4.80442
1662.82	4.89959
1663.08	0.00822067
1663.34	2.95026
1663.6	2.94642
1663.86	2.93593
1664.12	0.867653
1664.38	4.86552
1664.64	1.91769
1664.9	4.88567
1665.16	1.94874
1665.42	-1.99223
1665.68	1.91162
1665.94	5.81433
1666.2	2.98052
1666.46	3.9817
1666.72	2.98991
1666.98	3.91277
1667.24	3.76406
1667.5	3.90915
1667.76	3.90083
1668.02	1.92141
1668.28	-3.01468
1668.54	-2.03274
1668.8	-0.056179
1669.06	-2.00769
1669.32	-0.00585556
1669.58	2.9647
1669.84	0.992828
1670.1	1.98491
1670.36	2.97042
1670.62	0.0100441
1670.88	3.00053
1671.14	3.01923
1671.4	2.02874
1671.66	7.9582
1671.92	0.0520821
1672.18	-1.91983
1672.44	3.02923
1672.69	2.04531
1672.95	8.96773
1673.21	1.06248
1673.47	-3.87584
1673.73	8.98076
1673.99	0.0896873
1674.25	3.06394
1674.51	1.09589
1674.77	3.08293
1675.03	1.11413
1675.29	1.12621
1675.55	1.13666
1675.81	0.154545
1676.07	2.13795
1676.33	1.15114
1676.59	2.146
1676.85	3.14178
1677.11	2.15705
1677.37	2.16004
1677.63	4.14052
1677.89	5.12947
1678.14	-2.7894
1678.4	-2.79363
1678.66	0.168354
1678.92	2.14192
1679.18	1.15068
1679.44	-3.79397
1679.7	4.11491
1679.96	1.14871
1680.22	1.14814
1680.48	4.11362
1680.74	2.13648
1681	4.11211
1681.26	-1.8158
1681.52	3.12607
1681.78	3.12954
1682.03	3.13348
1682.29	-3.77756
1682.55	4.1306
1682.81	1.17229
1683.07	2.1628
1683.33	-0.797626
1683.59	-5.73296
1683.85	3.16244
1684.11	-0.785614
1684.37	0.204067
1684.63	-2.76094
1684.89	-0.784592
1685.14	3.16796
1685.4	2.18374
1685.66	0.212799
1685.92	6.1422
1686.18	-6.6895
1686.44	1.21622
1686.7	1.22496
1686.96	2.22708
1687.22	-1.71458
1687.48	-3.68436
1687.73	-2.69447
1687.99	1.25676
1688.25	-0.718464
1688.51	-2.69235
1688.77	-1.70419
1689.03	-3.67965
1689.29	0.265305
1689.55	-2.69751
1689.81	1.24745
1690.06	0.257484
1690.32	-2.70591
1690.58	6.17308
1690.84	0.271477
1691.1	3.24264
1691.36	2.26582
1691.62	-1.67309
1691.88	-1.66289
1692.13	-5.60119
1692.39	3.28722
1692.65	3.29037
1692.91	2.30248
1693.17	1.31288
1693.43	5.25385
1693.69	0.316044
1693.95	2.28026
1694.2	-3.63659
1694.46	4.24459
1694.72	1.28499
1694.98	-1.67072
1695.24	1.28984
1695.5	-0.671524
1695.76	0.322205
1696.01	2.3014
1696.27	1.32558
1696.53	2.32352
1696.79	-4.56438
1697.05	-1.60186
1697.31	2.34215
1697.57	-0.615765
1697.82	-2.59044
1698.08	-0.6255
1698.34	2.32534
1698.6	2.32382
1698.86	0.354393
1699.12	1.33896
1699.38	3.3102
1699.63	0.363796
1699.89	-1.5951
1700.15	1.36395
1700.41	0.387394
1700.67	1.36983
1700.92	4.32603
1701.18	-3.53944
1701.44	3.35105
1701.7	-0.580776
1701.96	0.402523
1702.22	4.33365
1702.47	0.399612
1702.73	0.397797
1702.99	3.34483
1703.25	4.33177
1703.51	5.32013
1703.77	-1.55396
1704.02	1.39647
1704.28	3.36573
1704.54	-4.48288
1704.8	6.33862
1705.06	-0.531303
1705.32	-2.4914
1705.57	1.4435
1705.83	2.43335
1706.09	0.47554
1706.35	1.4584
1706.61	-0.508282
1706.86	5.38081
1707.12	-0.514477
1707.38	1.44524
1707.64	-3.46338
1707.9	2.41939
1708.16	-4.45256
1708.41	4.36602
1708.67	-5.44238
1708.93	3.36869
1709.19	-1.5359
1709.44	3.35797
1709.7	-3.49449
1709.96	-5.44758
1710.22	-1.52474
1710.48	3.3786
1710.73	-5.42307
1710.99	1.44139
1711.25	-0.502575
1711.51	-4.40793
1711.77	0.50042
1712.02	2.47058
1712.28	3.45864
1712.54	0.52322
1712.8	-2.41851
1713.06	-2.42741
1713.31	-3.41536
1713.57	-1.46758
1713.83	-2.45226
1714.09	0.47184
1714.34	-3.4361
1714.6	-3.43311
1714.86	-0.498402
1715.12	6.34427
1715.38	-1.46202
1715.63	0.507034
1715.89	-3.38344
1716.15	-1.42134
1716.41	0.537434
1716.66	-0.437546
1716.92	0.538246
1717.18	0.534145
1717.44	2.4791
1717.69	2.46806
1717.95	0.503426
1718.21	2.44206
1718.47	-1.46438
1718.72	-7.31376
1718.98	-3.41814
1719.24	-0.493671
1719.5	-2.43339
1719.75	2.44281
1720.01	2.44872
1720.27	-2.40773
1720.53	-6.29222
1720.78	1.50147
1721.04	1.50196
1721.3	3.44467
1721.56	-0.448387
1721.81	-1.42109
1722.07	-0.449471
1722.33	-0.451416
1722.59	-4.34188
1722.84	4.403
1723.1	0.514194
1723.36	-2.40044
1723.62	0.514832
1723.87	2.46061
1724.13	-5.29952
1724.39	-0.439075
1724.64	1.50933
1724.9	0.540169
1725.16	-5.28551
1725.42	0.529217
1725.67	1.49236
1725.93	-0.45443
1726.19	-7.2402
1726.45	-3.35939
1726.7	-4.31665
1726.96	0.534557
1727.22	0.537045
1727.47	-0.438068
1727.73	-2.36723
1727.99	-5.25481
1728.24	3.47013
1728.5	-3.30846
1728.76	-2.34623
1729.02	1.47404
1729.27	-0.515961
1729.53	-2.46041
1729.79	-0.49754
1730.05	2.43123
1730.3	-1.40689
1730.56	0.508205
1730.82	1.47087
1731.07	3.40627
1731.33	-4.26328
1731.59	1.5472
1731.84	2.52364
1732.1	2.53182
1732.36	1.57192
1732.61	1.57681
1732.87	-1.31736
1733.13	2.54973
1733.39	3.51518
1733.64	1.5792
1733.9	-3.25491
1734.16	2.52638
1734.41	-3.26492
1734.67	0.588669
1734.93	1.54779
1735.18	-2.31142
1735.44	2.50114
1735.7	5.38651
1735.95	5.38582
1736.21	1.53735
1736.47	-1.34491
1736.72	-1.33986
1736.98	1.55088
1737.24	1.55426
1737.49	6.3672
1737.75	4.44621
1738.01	3.48783
1738.26	1.56598
1738.52	-1.31818
1738.78	1.56609
1739.03	1.5662
1739.29	-0.356445
1739.55	2.5222
1739.8	0.594448
1740.06	1.54414
1740.32	4.41255
1740.57	1.52753
1740.83	0.564503
1741.09	0.563404
1741.34	2.47947
1741.6	-2.3107
1741.86	-0.393993
1742.11	-4.22178
1742.37	3.44345
1742.63	7.27995
1742.88	0.583992
1743.14	-0.368229
1743.4	1.55301
1743.65	2.51844
1743.91	-1.3048
1744.16	-0.346874
1744.42	4.43889
1744.68	0.61512
1744.93	5.40406
1745.19	7.32643
1745.45	3.51075
1745.7	4.47676
1745.96	0.657986
1746.22	4.48745
1746.47	2.57528
1746.73	-1.25052
1746.98	1.61351
1747.24	1.61284
1747.5	-0.300461
1747.75	0.654339
1748.01	2.56313
1748.27	0.658382
1748.52	1.62142
1748.78	2.58611
1749.03	1.64281
1749.29	4.51939
1749.55	-4.05883
1749.8	2.64156
1750.06	3.61502
1750.32	-1.14177
1750.57	3.65526
1750.83	2.71877
1751.08	-1.09155
1751.34	5.61462
1751.6	5.62553
1751.85	2.76118
1752.11	-5.84277
1752.36	-3.93368
1752.62	5.61821
1752.88	7.52729
1753.13	6.57082
1753.39	-0.111916
1753.64	10.3869
1753.9	0.846069
1754.15	-0.105392
1754.41	0.848591
1754.67	3.70922
1754.92	1.80477
1755.18	0.854832
1755.43	1.81252
1755.69	3.72255
1755.95	-1.99308
1756.2	-1.9922
1756.46	3.72219
1756.71	3.71933
1756.97	1.81021
1757.23	5.61194
1757.48	3.70491
1757.74	0.855198
1757.99	5.6147
1758.25	6.57829
1758.5	-1.00936
1758.76	3.76144
1759.02	5.67506
1759.27	2.83031
1759.53	5.69502
1759.78	3.80362
1760.04	1.90897
1760.3	8.5759
1760.55	2.8721
1760.81	0.0230103
1761.06	0.978779
1761.32	1.9323
1761.57	0.0309334
1761.83	-1.86871
1762.08	3.83949
1762.34	4.79584
1762.6	2.90222
1762.85	3.86977
1763.11	2.93331
1763.36	-1.81063
1763.62	5.80324
1763.87	2.96157
1764.13	5.82673
1764.38	-0.816135
1764.64	4.90883
1764.89	2.08075
1765.15	5.90374
1765.4	-0.743786
1765.66	-2.63464
1765.92	2.13726
1766.17	0.243851
1766.43	3.10934
1766.68	1.21289
1766.94	0.266605
1767.19	6.93612
1767.45	5.99255
1767.7	2.19042
1767.96	6.95189
1768.21	1.2443
1768.47	3.15121
1768.73	4.10776
1768.98	4.1134
1769.24	2.20177
1769.49	6.93832
1769.75	2.17293
1770	7.86408
1770.26	4.07615
1770.51	5.99551
1770.77	3.16618
1771.02	2.22583
1771.28	5.08829
1771.53	3.20894
1771.79	8.93843
1772.04	9.90465
1772.3	3.25975
1772.55	8.98265
1772.81	4.24528
1773.06	1.40676
1773.32	5.22709
1773.57	8.09644
1773.83	8.11039
1774.08	5.26816
1774.34	6.23257
1774.59	5.29205
1774.85	8.1592
1775.1	5.3182
1775.36	6.28286
1775.61	9.15749
1775.87	6.33039
1776.12	6.35141
1776.38	1.59966
1776.63	10.19
1776.89	-0.290207
1777.14	9.24495
1777.4	6.38565
1777.65	3.53021
1777.91	6.38895
1778.16	3.53112
1778.42	2.57882
1778.67	-0.27737
1778.93	6.38656
1779.18	7.33413
1779.44	3.52283
1779.69	1.62106
1779.95	4.48272
1780.2	12.1173
1780.46	-0.242756
1780.71	6.43093
1780.97	7.39526
1781.22	5.50446
1781.47	2.65768
1781.73	0.763721
1781.98	2.67991
1782.24	8.40773
1782.49	4.61417
1782.75	-0.130211
1783	2.74262
1783.26	4.66173
1783.51	3.72179
1783.77	5.642
1784.02	4.70284
1784.28	3.76406
1784.53	1.87295
1784.79	6.66126
1785.04	2.86052
1785.29	-0.944378
1785.55	3.83406
1785.8	1.9314
1786.06	4.79668
1786.31	-2.83139
1786.57	5.76208
1786.82	0.0499458
1787.08	4.83503
1787.33	3.89823
1787.58	3.91833
1787.84	4.89798
1788.09	3.02217
1788.35	2.1019
1788.6	3.09376
1788.86	4.07734
1789.11	0.262997
1789.37	5.0685
1789.62	8.92545
1789.87	0.321178
1790.13	1.29238
1790.38	-1.57025
1790.64	0.359676
1790.89	2.28483
1791.15	6.12474
1791.4	2.28777
1791.65	2.26864
1791.91	3.22994
1792.16	4.19053
1792.42	3.24065
1792.67	4.20744
1792.93	1.34377
1793.18	-2.47527
1793.43	6.1571
1793.69	-0.540779
1793.94	-0.533298
1794.2	-2.43729
1794.45	0.4459
1794.7	-0.506081
1794.96	-2.42141
1795.21	0.471409
1795.47	6.26501
1795.72	6.29626
1795.97	2.47603
1796.23	3.44983
1796.48	-1.33632
1796.74	0.598816
1796.99	6.37736
1797.25	-0.331894
1797.5	0.643391
1797.75	1.6179
1798.01	8.35918
1798.26	2.60298
1798.51	-0.270859
1798.77	3.58437
1799.02	3.59128
1799.28	-0.250759
1799.53	0.712727
1799.78	2.63523
1800.04	2.63314
1800.29	2.63166
1800.55	0.710228
1800.8	-2.17034
1801.05	-0.246349
1801.31	1.67852
1801.56	2.64388
1801.81	1.68958
1802.07	-1.18435
1802.32	2.6669
1802.58	1.71652
1802.83	1.72819
1803.08	5.5854
1803.34	-1.1278
1803.59	-0.151882
1803.84	-0.138805
1804.1	-6.861
1804.35	1.80246
1804.61	3.73756
1804.86	2.7897
1805.11	-1.04542
1805.37	0.894135
1805.62	2.8357
1805.87	-0.0368195
1806.13	-0.0223923
1806.38	-0.972874
1806.64	0.00255585
1806.89	1.94098
1807.14	2.91405
1807.4	0.0297546
1807.65	-1.89193
1807.9	2.9327
1808.16	1.97486
1808.41	1.01715
1808.66	4.87905
1808.92	1.0302
1809.17	2.96495
1809.42	4.89994
1809.68	4.90679
1809.93	1.05771
1810.18	2.02876
1810.44	0.107082
1810.69	-3.74405
1810.94	3.97224
1811.2	0.118763
1811.45	0.123192
1811.7	0.1273
1811.96	3.02385
1812.21	-2.75512
1812.46	-1.78429
1812.72	1.11743
1812.97	2.09248
1813.22	-0.788761
1813.48	-0.778271
1813.73	2.1231
1813.98	-2.69062
1814.24	4.07821
1814.49	2.16404
1814.74	0.249207
1815	-1.66479
1815.25	-5.51748
1815.5	4.15583
1815.76	6.09693
1816.01	0.304985
1816.26	1.27781
1816.52	2.25098
1816.77	3.22486
1817.02	2.26556
1817.27	-2.56603
1817.53	5.16506
1817.78	4.18198
1818.03	-1.62333
1818.29	7.07499
1818.54	-1.60632
1818.79	3.23947
1819.05	0.351124
1819.3	5.18492
1819.55	-1.57292
1819.8	1.33535
1820.06	-0.589191
1820.31	3.28542
1820.56	5.22813
1820.82	5.23812
1821.07	1.37831
1821.32	0.418709
1821.58	1.39533
1821.83	-4.39962
1822.08	-0.520142
1822.33	3.35931
1822.59	3.36691
1822.84	7.2453
1823.09	5.31543
1823.34	3.38494
1823.6	0.48333
1823.85	0.483238
1824.1	2.41827
1824.36	4.3562
1824.61	0.491226
1824.86	5.33829
1825.11	3.40919
1825.37	1.48023
1825.62	4.39289
1825.87	0.525597
1826.12	2.46632
1826.38	-3.34151
1826.63	-1.4009
1826.88	0.540127
1827.14	1.51252
1827.39	1.51804
1827.64	3.46224
1827.89	-4.28048
1828.15	4.44593
1828.4	3.48003
1828.65	0.574348
1828.9	3.47938
1829.16	-1.36739
1829.41	1.53721
1829.66	4.44376
1829.91	0.570606
1830.17	-0.39769
1830.42	3.47339
1830.67	6.37552
1830.92	-1.37193
1831.18	-0.401329
1831.43	2.51008
1831.68	8.32835
1831.93	2.52625
1832.19	0.596569
1832.44	-0.364864
1832.69	5.4563
1832.94	2.56027
1833.2	1.59918
1833.45	-0.336544
1833.7	3.54357
1833.95	1.61078
1834.2	9.37023
1834.46	9.37549
1834.71	-0.328049
1834.96	5.46545
1835.21	6.41307
1835.47	6.39342
1835.72	4.44632
1835.97	3.46856
1836.22	5.40414
1836.48	5.39528
1836.73	5.58063
1836.98	2.66374
1837.23	4.54713
1837.48	5.49657
1837.74	1.59205
1837.99	3.5032
1838.24	1.52684
1838.49	1.50276
1838.74	-1.39952
1839	0.601723
1839.25	3.5377
1839.5	3.55503
1839.75	1.62441
1840	0.662018
1840.26	0.673168
1840.51	5.47926
1840.76	0.60965
1841.01	3.48815
1841.27	2.50042
1841.52	8.27887
1841.77	5.36071
1842.02	5.34325
1842.27	5.32749
1842.53	-5.29953
1842.78	1.44081
1843.03	4.34253
1843.28	1.44518
1843.53	-1.44348
1843.78	-1.44355
1844.04	4.34473
1844.29	5.30503
1844.54	2.4116
1844.79	1.45261
1845.04	0.489136
1845.3	-3.37529
1845.55	-1.44449
1845.8	-4.33763
1846.05	3.397
1846.3	-2.37624
1846.55	-4.29294
1846.81	3.46397
1847.06	-1.38975
1847.31	-2.40939
1847.56	6.19374
1847.81	1.36555
1848.07	6.17938
1848.32	2.35012
1848.57	3.33318
1848.82	5.23698
1849.07	-0.552132
1849.32	1.37451
1849.57	-1.52183
1849.83	4.2411
1850.08	-1.54553
1850.33	2.28995
1850.58	-4.45633
1850.83	-0.622631
1851.09	0.327522
1851.34	-1.60307
1851.59	1.27066
1851.84	1.26402
1852.09	0.298901
1852.34	-0.663929
1852.59	-1.62526
1852.84	-1.62592
1853.1	4.13456
1853.35	-3.54919
1853.6	-0.671925
1853.85	2.203
1854.1	-2.60544
1854.35	-4.53597
1854.6	1.20724
1854.86	4.07154
1855.11	-5.52499
1855.36	1.17969
1855.61	0.208172
1855.86	-3.63865
1856.11	1.14308
1856.36	-1.73544
1856.61	-0.780907
1856.87	1.13342
1857.12	-0.783813
1857.37	1.12862
1857.62	6.86971
1857.87	1.11729
1858.12	-0.804138
1858.37	-0.811764
1858.63	3.00729
1858.88	2.03904
1859.13	1.071
1859.38	2.97227
1859.63	-0.865211
1859.88	1.99432
1860.13	1.99156
1860.38	0.0779266
1860.63	1.03468
1860.89	-2.78454
1861.14	0.0893784
1861.39	0.0933647
1861.64	1.05571
1861.89	-3.72437
1862.14	0.103485
1862.39	-2.77144
1862.64	1.04807
1862.9	0.0805817
1863.15	-2.80013
1863.4	-5.67956
1863.65	0.0458488
1863.9	-1.87643
1864.15	0.980457
1864.4	3.83672
1864.65	0.961109
1864.9	-3.82366
1865.15	1.89534
1865.4	0.927647
1865.66	0.912926
1865.91	-0.0571785
1866.16	0.878647
1866.41	-3.90705
1866.66	-0.113892
1866.91	-2.03801
1867.16	1.75148
1867.41	0.780064
1867.66	-2.09181
1867.91	0.747196
1868.16	0.737301
1868.41	-1.17153
1868.67	-1.17708
1868.92	-3.08065
1869.17	0.721218
1869.42	-0.232796
1869.67	-1.18853
1869.92	-1.194
1870.17	-2.14984
1870.42	2.59763
1870.67	-1.20943
1870.92	-3.11498
1871.17	0.68251
1871.42	-0.271706
1871.67	-1.22813
1871.92	-3.13622
1872.17	1.60442
1872.42	-4.10354
1872.68	-5.06035
1872.93	0.627857
1873.18	2.51509
1873.43	-1.29156
1873.68	-2.24611
1873.93	0.595051
1874.18	4.38221
1874.43	0.574558
1874.68	-0.386806
1874.93	-2.29726
1875.18	-1.36237
1875.43	2.41524
1875.68	-2.33895
1875.93	3.32808
1876.18	2.35342
1876.43	1.38749
1876.68	1.37098
1876.93	-1.48085
1877.18	-0.544399
1877.43	-4.34956
1877.68	0.348877
1877.93	5.9611
1878.18	-5.33932
1878.44	0.470398
1878.69	0.409821
1878.93	1.33378
1879.19	-1.5139
1879.44	7.98839
1879.69	-0.520397
1879.94	-2.43093
1880.19	0.393917
1880.44	1.33445
1880.69	-8.14009
1880.94	-0.561539
1881.19	-0.574757
1881.44	5.09913
1881.69	1.29069
1881.94	1.26576
1882.19	3.13128
1882.44	-2.56556
1882.69	-1.64749
1882.94	1.1521
1883.19	2.07916
1883.44	2.04378
1883.69	-1.47694
1883.94	-1.6489
1884.19	-2.69644
1884.44	1.07161
1884.69	2.03444
1884.94	-3.64791
1885.19	-1.75322
1885.44	-6.455
1885.69	-1.73748
1885.94	1.09351
1886.19	2.05302
1886.44	0.16943
1886.69	-2.66259
1886.94	2.99499
1887.19	0.139885
1887.44	0.125854
1887.69	1.05499
1887.94	1.03981
1888.19	0.0810623
1888.44	3.8358
1888.69	2.8709
1888.94	-2.80202
1889.19	-0.935459
1889.44	-2.83592
1889.69	-3.78883
1889.94	4.67673
1890.19	-1.91978
1890.44	1.84409
1890.69	-1.91806
1890.94	-0.0308304
1891.19	-0.0333786
1891.43	-1.924
1891.68	-1.93291
1891.94	-0.997311
1892.18	1.81979
1892.43	4.63705
1892.68	-1.96148
1892.93	-2.91403
1893.18	0.83786
1893.43	1.75851
1893.68	-0.151436
1893.93	-1.11667
1894.18	-3.94669
1894.43	2.63374
1894.68	-3.9654
1894.93	-3.03811
1895.18	-3.04672
1895.43	0.706516
1895.68	-1.17525
1895.93	2.58162
1896.18	3.52069
1896.43	4.46051
1896.68	-4.93843
1896.93	0.704018
1897.18	5.40723
1897.42	1.64526
1897.68	-1.17853
1897.92	0.698692
1898.17	1.63322
1898.42	2.56529
1898.67	-0.267239
1898.92	2.54076
1899.17	-0.295452
1899.42	-4.07135
1899.67	1.55385
1899.92	-2.21513
1900.17	-0.347187
1900.42	-1.2978
1900.67	-2.24464
1900.92	4.32608
1901.16	-5.07032
1901.41	-0.372421
1901.66	0.569607
1901.91	-3.18872
1902.16	3.39421
1902.41	0.577019
1902.66	3.4016
1902.91	5.2772
1903.16	5.26699
1903.41	-0.387115
1903.66	-0.398296
1903.91	4.29335
1904.16	-4.17825
1904.41	1.45486
1904.65	0.506954
1904.9	-6.08203
1905.15	0.490368
1905.4	-2.33799
1905.65	-1.40498
1905.9	3.28632
1906.15	0.448193
1906.4	0.427513
1906.65	4.17246
1906.9	-1.47455
1907.14	-4.30243
1907.39	-0.555546
1907.64	-1.50078
1907.89	-3.38331
1908.14	1.31105
1908.39	3.19115
1908.64	2.24864
1908.89	0.365322
1909.14	0.362946
1909.39	4.12198
1909.63	-6.21565
1909.88	1.30827
1910.13	1.31413
1910.38	-2.4421
1910.63	3.21159
1910.88	0.393993
1911.13	2.2799
1911.38	2.27987
1911.62	0.39344
1911.87	-5.26367
1912.12	-3.38685
1912.37	1.3133
1912.62	-0.580208
1912.87	5.06306
1913.12	0.346832
1913.37	3.1656
1913.61	2.21836
1913.86	2.21798
1914.11	1.28112
1914.36	0.344872
1914.61	0.347496
1914.86	6.00732
1915.11	0.351051
1915.36	-1.53472
1915.6	3.1818
1915.85	4.12104
1916.1	2.22569
1916.35	-0.61557
1916.6	-0.624825
1916.85	-6.29786
1917.1	4.06254
1917.34	4.04752
1917.59	4.97672
1917.84	3.07932
1918.09	-3.52957
1918.34	0.235264
1918.59	1.17677
1918.83	2.12207
1919.08	0.23978
1919.33	-6.36054
1919.58	0.251095
1919.83	-0.683277
1920.08	-3.51027
1920.33	2.15895
1920.57	-0.681072
1920.82	4.03112
1921.07	-1.64239
1921.32	2.14099
1921.57	-0.69101
1921.81	0.253494
1922.06	-4.47639
1922.31	3.08573
1922.56	3.07852
1922.81	-3.55214
1923.06	3.99925
1923.31	-1.68709
1923.55	2.08313
1923.8	-0.763466
1924.05	3.95131
1924.3	1.10247
1924.55	2.03248
1924.79	0.130306
1925.04	1.06606
1925.29	-0.829155
1925.54	1.05855
1925.79	2.00521
1926.04	-0.825138
1926.28	3.90704
1926.53	4.85728
1926.78	2.97023
1927.03	2.97678
1927.28	2.03189
1927.52	0.137421
1927.77	0.135822
1928.02	5.81626
1928.27	2.02546
1928.52	-0.819191
1928.76	6.75539
1929.01	-1.77341
1929.26	-0.828056
1929.51	-0.829006
1929.76	0.120514
1930	-2.71896
1930.25	-1.76798
1930.5	-5.55883
1930.75	-3.65944
1931	1.08999
1931.24	-2.71195
1931.49	-2.71831
1931.74	-1.77934
1931.99	3.90369
1932.24	-0.855598
1932.48	1.9783
1932.73	-0.88184
1932.98	-0.895576
1933.23	-0.904873
1933.47	0.0308075
1933.72	-1.87138
1933.97	5.72395
1934.22	2.89131
1934.46	2.91278
1934.71	-3.71146
1934.96	2.02339
1935.21	2.04821
1935.46	-4.6035
1935.7	-5.54636
1935.95	1.13473
1936.2	-3.66673
1936.45	0.134254
1936.69	2.98318
1936.94	2.97008
1937.19	-2.76276
1937.44	1.03017
1937.68	1.9662
1937.93	1.9496
1938.18	3.83801
1938.43	-0.937328
1938.68	0.958279
1938.92	-0.938496
1939.17	2.86755
1939.42	1.91461
1939.67	-0.942993
1939.91	-3.80298
1940.16	4.77071
1940.41	-3.8101
1940.66	0.956863
1940.9	0.00657654
1941.15	0.980541
1941.4	-2.82769
1941.64	-3.78943
1941.89	-2.84759
1942.14	-3.82267
1942.39	0.913563
1942.63	0.921677
1942.88	0.95787
1943.13	-0.949165
1943.38	2.8646
1943.62	0.930233
1943.87	-1.95854
1944.12	-4.84087
1944.37	-1.00747
1944.61	-1.00605
1944.86	-1.00492
1945.11	-1.0029
1945.35	6.64169
1945.6	-2.90842
1945.85	-2.90625
1946.1	6.6543
1946.34	1.87552
1946.59	-3.86275
1946.84	-0.0403481
1947.09	-2.91444
1947.33	0.903099
1947.58	-1.97688
1947.83	-5.81329
1948.07	5.65327
1948.32	-2.00417
1948.57	-2.0118
1948.82	-2.97843
1949.06	2.75339
1949.31	-1.0713
1949.56	1.79942
1949.8	-2.98241
1950.05	-2.97981
1950.3	-2.01953
1950.54	0.863136
1950.79	0.875557
1951.04	-1.03341
1951.29	-3.90121
1951.53	7.61838
1951.78	2.83201
1952.03	1.87857
1952.27	-1.96037
1952.52	0.919392
1952.77	-3.88298
1953.01	4.75203
1953.26	2.83233
1953.51	-4.85002
1953.76	0.895962
1954	-2.00794
1954.25	-0.121548
1954.49	-1.11105
1954.74	-1.13973
1954.99	-3.08168
1955.24	1.69563
1955.48	-1.18679
1955.73	1.68532
1955.98	-1.18484
1956.22	-1.17415
1956.47	-1.15224
1956.72	6.53008
1956.96	-1.14128
1957.21	3.65991
1957.46	2.70335
1957.7	5.58785
1957.95	-0.174919
1958.2	-0.175747
1958.44	1.74384
1958.69	2.70131
1958.94	-3.07038
1959.18	-0.197037
1959.43	2.67088
1959.68	-1.1838
1959.92	-0.231308
1960.17	2.63749
1960.42	-0.257942
1960.66	-0.271049
1960.91	-0.284866
1961.16	0.660534
1961.4	-2.23343
1961.65	4.4719
1961.9	1.58155
1962.14	1.57636
1962.39	-3.22646
1962.63	5.40643
1962.88	3.48228
1963.13	2.51778
1963.37	-0.366753
1963.62	-5.17157
1963.87	-0.376869
1964.11	-2.3014
1964.36	-1.34283
1964.61	-1.34485
1964.85	4.4095
1965.1	2.47901
1965.35	-4.24804
1965.59	-1.37538
1965.84	-0.420753
1966.08	0.537361
1966.33	-0.421261
1966.58	-0.418221
1966.82	1.50665
1967.07	1.50717
1967.32	-4.26085
1967.56	-2.34595
1967.81	-1.39072
1968.05	6.29699
1968.3	2.44731
1968.55	-2.36381
1968.79	2.43598
1969.04	3.38694
1969.29	0.489346
1969.53	0.472584
1969.78	7.17692
1970.02	0.433071
1970.27	2.33593
1970.52	1.3607
1970.76	-0.571018
1971.01	0.37516
1971.25	5.15964
1971.5	3.22956
1971.75	3.21912
1971.99	1.2913
1972.24	-3.50749
1972.48	9.92052
1972.73	9.91739
1972.98	6.07352
1973.22	2.22637
1973.47	-1.6234
1973.71	-9.30954
1973.96	4.10068
1974.21	6.00587
1974.45	7.913
1974.7	5.0298
1974.94	3.1073
1975.19	4.06179
1975.44	5.01857
1975.68	5.97779
1975.93	6.93849
1976.17	5.02143
1976.42	5.9799
1976.66	4.05909
1976.91	5.01448
1977.16	5.96843
1977.4	2.12456
1977.65	4.99356
1977.89	1.14645
1978.14	0.175262
1978.39	7.83289
1978.63	4.94471
1978.88	3.01708
1979.12	7.80118
1979.37	6.83727
1979.61	6.83352
1979.86	3.95293
1980.1	6.82523
1980.35	10.6551
1980.6	4.8938
1980.84	8.71341
1981.09	2.95057
1981.33	6.7738
1981.58	1.97186
1981.82	9.62461
1982.07	8.65817
1982.31	4.82022
1982.56	5.77103
1982.81	9.58867
1983.05	10.5323
1983.3	11.4721
1983.54	5.70968
1983.79	7.60759
1984.03	8.55437
1984.28	6.63266
1984.52	8.53592
1984.77	6.61303
1985.02	3.73512
1985.26	16.1523
1985.51	9.44096
1985.75	8.47394
1986	8.46946
1986.24	12.2913
1986.49	4.64647
1986.73	12.2989
1986.98	8.47406
1987.22	14.2047
1987.47	7.51053
1987.71	14.1901
1987.96	7.4782
1988.21	7.45696
1988.45	12.2094
1988.7	6.45229
1988.94	15.9244
1989.19	9.21772
1989.43	4.55505
1989.68	10.2044
1989.92	11.9172
1990.17	11.7202
1990.41	8.23423
1990.66	15.3476
1990.9	12.8289
1991.15	14.4104
1991.39	8.77225
1991.64	12.7467
1991.88	9.51897
1992.13	11.7973
1992.37	7.59201
1992.62	11.365
1992.86	14.0769
1993.11	16.416
1993.35	12.9789
1993.6	14.4313
1993.84	14.9499
1994.09	12.124
1994.33	13.8997
1994.58	11.6476
1994.82	15.1981
1995.07	16.9939
1995.31	5.40046
1995.56	11.8653
1995.8	16.4143
1996.05	10.2933
1996.29	11.8904
1996.54	12.859
1996.78	16.2805
1997.03	13.3594
1997.27	13.4754
1997.52	13.7327
1997.76	10.1903
1998.01	18.8784
1998.25	18.8187
1998.5	17.0851
1998.74	15.707
1998.99	13.8167
1999.23	16.0329
1999.48	16.9769
1999.72	17.3038
1999.97	15.4981
2000.21	13.2137
2000.46	15.6234
2000.7	15.1849
2000.95	15.9596
2001.19	18.7033
2001.43	13.638
2001.68	15.8931
2001.92	17.6275
2002.17	16.5753
2002.41	15.7952
2002.66	16.7563
2002.9	16.2432
2003.15	16.5808
2003.39	13.2996
2003.64	14.609
2003.88	16.9341
2004.13	18.429
2004.37	17.5984
2004.61	16.951
2004.86	17.8143
2005.1	17.7683
2005.35	18.7149
2005.59	18.3429
2005.84	16.5734
2006.08	18.7479
2006.33	16.8332
2006.57	14.5846
2006.81	17.8988
2007.06	17.2999
2007.3	14.8023
2007.55	15.6281
2007.79	14.1625
2008.04	16.185
2008.28	16.2686
2008.53	18.3924
2008.77	17.893
2009.01	16.48
2009.26	15.5368
2009.5	19.4521
2009.75	18.8092
2009.99	22.4858
2010.24	12.7554
2010.48	14.9155
2010.73	19.9489
2010.97	14.9477
2011.21	22.0502
2011.46	9.75631
2011.7	13.2805
2011.95	15.9016
2012.19	17.6343
2012.43	13.965
2012.68	19.6101
2012.92	16.7809
2013.17	17.7103
2013.42	12.0437
2013.67	10.1363
2013.91	13.8827
2014.16	17.6224
2014.41	12.8992
2014.66	13.81
2014.9	13.7846
2015.15	12.8393
2015.4	17.5345
2015.64	12.8497
2015.89	13.7981
2016.14	13.8051
2016.39	14.7384
2016.63	17.5702
2016.88	12.9151
2017.13	14.8033
2017.37	19.4997
2017.62	19.491
2017.87	12.9012
2018.11	15.7029
2018.36	17.5594
2018.61	15.659
2018.86	12.8248
2019.1	15.6191
2019.35	14.66
2019.6	12.7666
2019.84	15.5676
2020.09	14.6239
2020.34	17.4304
2020.58	15.5569
2020.83	8.99931
2021.08	9.93492
2021.33	14.6218
2021.57	14.6264
2021.82	6.19801
2022.07	9.94342
2022.31	9.00342
2022.56	17.4252
2022.81	14.6067
2023.05	12.7225
2023.3	13.6445
2023.55	8.9566
2023.8	3.33515
2024.04	11.7429
2024.29	13.6027
2024.54	10.7895
2024.78	2.36444
2025.03	9.82378
2025.27	17.2787
2025.52	13.5281
2025.77	7.91447
2026.02	10.7017
2026.26	8.82018
2026.51	14.4231
2026.76	6.04804
2027	8.88063
2027.25	8.92048
2027.5	6.1596
2027.74	9.92946
2027.99	8.05352
2028.23	8.02456
2028.48	9.84979
2028.73	10.6453
2028.98	12.6527
2029.22	5.35096
2029.47	7.13211
2029.72	12.7982
2029.96	8.96732
2030.21	7.98143
2030.45	7.92826
2030.7	8.86071
2030.95	12.5502
2031.19	12.5915
2031.44	7.95986
2031.69	8.88802
2031.93	9.82397
2032.18	13.5604
2032.43	9.84544
2032.67	3.32906
2032.92	16.4243
2033.17	8.03696
2033.41	10.8561
2033.66	7.13042
2033.91	3.40714
2034.15	9.02757
2034.4	5.26566
2034.64	9.90791
2034.89	5.19354
2035.14	5.1846
2035.38	5.20716
2035.63	6.1596
2035.87	4.32104
2036.12	2.48726
2036.37	7.18918
2036.61	4.38443
2036.86	5.299
2037.11	7.17327
2037.35	9.05824
2037.6	4.38586
2037.84	5.32198
2038.09	3.45105
2038.34	7.18819
2038.58	13.7275
2038.83	9.98436
2039.08	7.17664
2039.32	6.23829
2039.57	6.23376
2039.81	7.16327
2040.06	8.08995
2040.31	9.94664
2040.55	9.00324
2040.8	6.19532
2041.04	8.0532
2041.29	8.97937
2041.54	8.97454
2041.78	6.17762
2042.03	3.38198
2042.27	4.31201
2042.52	6.17452
2042.77	2.4416
2043.01	8.96413
2043.26	0.582687
2043.5	8.9765
2043.75	7.13002
2044	3.42365
2044.24	4.379
2044.49	6.25607
2044.73	7.19101
2044.98	6.25115
2045.23	-1.22388
2045.47	7.12841
2045.72	-2.13462
2045.96	4.4119
2046.21	5.41469
2046.45	5.49426
2046.7	4.5245
2046.95	3.55146
2047.19	-1.14328
2047.44	-3.00388
2047.68	9.12046
2047.93	1.62632
2048.17	4.41864
2048.42	4.42533
2048.67	8.1614
2048.91	7.23716
2049.16	6.31453
2049.4	6.33161
2049.65	1.68206
2049.89	3.56547
2050.14	8.25417
2050.39	4.53738
2050.63	2.68712
2050.88	3.63327
2051.12	2.70642
2051.37	-0.0937767
2051.61	8.30929
2051.86	4.56523
2052.11	3.63631
2052.35	3.6425
2052.6	4.58849
2052.84	4.59579
2053.09	2.73846
2053.33	8.35612
2053.58	1.83047
2053.82	0.912148
2054.07	1.87238
2054.31	3.75645
2054.56	1.89708
2054.8	7.51682
2055.05	3.77962
2055.3	3.78295
2055.54	1.91486
2055.79	-6.5055
2056.03	0.976379
2056.28	5.65493
2056.52	-1.82261
2056.77	3.78763
2057.01	5.66006
2057.26	2.8615
2057.5	-0.869526
2057.75	1.00916
2058	0.0853348
2058.24	4.77301
2058.49	1.04494
2058.73	1.99671
2058.98	3.88386
2059.22	2.0274
2059.47	6.72045
2059.71	2.04896
2059.96	2.99369
2060.2	2.06468
2060.45	3.00169
2060.69	1.12956
2060.94	-0.740303
2061.18	0.206757
2061.43	2.09121
2061.67	3.97434
2061.92	1.174
2062.16	7.73531
2062.41	1.18935
2062.65	-3.48314
2062.9	0.273304
2063.14	2.1589
2063.39	2.17318
2063.63	4.99783
2063.88	-4.36049
2064.12	4.08512
2064.37	-0.590904
2064.61	-0.580925
2064.86	3.18043
2065.1	2.25597
2065.35	-2.4166
2065.59	1.35431
2065.84	1.37275
2066.08	6.08307
2066.33	-0.472851
2066.57	3.29562
2066.82	0.487339
2067.06	3.31616
2067.31	-0.428871
2067.55	-0.418377
2067.8	3.35191
2068.04	0.547276
2068.29	-0.379677
2068.53	3.39122
2068.78	6.22085
2069.02	0.594555
2069.27	1.5424
2069.51	-1.27627
2069.76	0.59935
2070	-2.22889
2070.25	-4.1062
2070.49	-5.03473
2070.73	2.50421
2070.98	-0.287193
2071.22	1.622
2071.47	6.32914
2071.71	4.44234
2071.96	2.61804
2072.2	2.64292
2072.45	1.70577
2072.69	0.768635
2072.94	-1.10826
2073.18	0.779076
2073.43	-4.86252
2073.67	-0.149414
2073.92	2.68462
2074.16	-0.130898
2074.4	5.52885
2074.65	2.71658
2074.89	2.73238
2075.14	3.69367
2075.38	0.889126
2075.63	2.80096
2075.87	4.7183
2076.12	1.91095
2076.36	-0.905327
2076.6	0.991558
2076.85	1.94543
2077.09	0.0609589
2077.34	1.00451
2077.58	-1.8274
2077.83	2.87869
2078.07	0.995892
2078.31	-2.76358
2078.56	4.79914
2078.8	4.81124
2079.05	-0.837643
2079.29	0.119762
2079.54	1.08133
2079.78	-3.61296
2080.03	-1.70845
2080.27	-0.748859
2080.51	1.15536
2080.76	-0.720989
2081	-1.65715
2081.25	-1.65268
2081.49	4.02205
2081.74	2.13949
2081.98	-4.4663
2082.22	-1.62484
2082.47	-0.668617
2082.71	-0.657219
2082.96	-0.646545
2083.2	1.2528
2083.45	-1.57441
2083.69	2.21239
2083.93	3.16418
2084.18	-1.55184
2084.42	-1.54277
2084.67	-0.589684
2084.91	4.14436
2085.15	-1.51557
2085.4	2.27344
2085.64	-1.4981
2085.89	-0.544239
2086.13	1.35741
2086.37	2.32196
2086.62	-1.43854
2086.86	-2.36688
2087.11	-3.30042
2087.35	-0.448887
2087.59	-3.27242
2087.84	2.41805
2088.08	-1.35828
2088.32	-2.29521
2088.57	1.50037
2088.81	0.564629
2089.06	-3.21045
2089.3	3.4262
2089.54	-1.29182
2089.79	-0.329494
2090.03	-4.09879
2090.28	-5.03378
2090.52	0.660759
2090.76	-0.274734
2091.01	-2.15704
2091.25	-2.14387
2091.5	0.712372
2091.74	-4.01331
2091.98	-3.04714
2092.23	-2.07916
2092.47	-3.95547
2092.72	-0.139111
2092.96	1.78219
2093.2	0.852825
2093.45	2.77163
2093.69	-1.00867
2093.93	-0.99017
2094.18	-0.0225182
2094.42	-0.95665
2094.66	0.956326
2094.91	0.965481
2095.15	1.92352
2095.39	0.0285187
2095.64	-3.77073
2095.88	2.88425
2096.13	-1.8633
2096.37	-4.7085
2096.61	-1.85175
2096.86	-1.84383
2097.1	1.96371
2097.34	1.01771
2097.59	0.0694771
2097.83	2.91937
2098.07	0.0771904
2098.32	6.72958
2098.56	-1.80658
2098.8	1.99393
2099.05	3.90166
2099.29	3.91
2099.53	-0.828362
2099.78	0.12838
2100.02	2.03511
2100.27	-1.75103
2100.51	2.05577
2100.75	0.169296
2101	3.97949
2101.24	0.201775
2101.48	0.218914
2101.73	-1.66619
2101.97	-2.60415
2102.21	0.254845
2102.45	2.16303
2102.7	1.22301
2102.94	-5.4181
2103.18	-1.61552
2103.43	2.18412
2103.67	1.23981
2103.92	-4.44741
2104.16	6.00174
2104.4	-0.632568
2104.64	1.27895
2104.89	-1.55373
2105.13	0.36071
2105.37	1.32559
2105.62	-0.557629
2105.86	-1.48958
2106.1	2.3286
2106.35	-1.45906
2106.59	0.455479
2106.83	0.46719
2107.08	2.3799
2107.32	-1.40966
2107.56	-1.39875
2107.8	4.31098
2108.05	-3.29165
2108.29	0.510021
2108.53	-0.441063
2108.78	-0.441673
2109.02	-1.38956
2109.26	-2.33239
2109.51	3.37592
2109.75	0.547092
2109.99	0.56477
2110.23	-0.375061
2110.48	4.38469
2110.72	3.44437
2110.96	2.50402
2111.21	-2.2361
2111.45	-1.27674
2111.69	-0.319633
2111.93	4.43382
2112.18	-2.20869
2112.42	-3.15076
2112.66	-0.292301
2112.91	-3.12801
2113.15	-0.26511
2113.39	0.699108
2113.63	0.718487
2113.88	-1.16454
2114.12	2.65079
2114.36	-0.193184
2114.61	-2.08752
2114.85	-0.177849
2115.09	-1.11672
2115.33	0.794739
2115.58	4.60384
2115.82	0.808773
2116.06	1.76569
2116.31	-1.07831
2116.55	1.77378
2116.79	-2.02319
2117.03	1.7819
2117.28	-0.109711
2117.52	-4.84949
2117.76	3.70829
2118	2.76424
2118.25	1.81818
2118.49	1.82129
2118.73	0.871513
2118.97	-0.0789413
2119.22	3.71605
2119.46	-1.97273
2119.7	-1.9706
2119.94	0.875362
2120.19	2.77337
2120.43	1.82954
2120.67	1.83716
2120.91	-1.94218
2121.16	-2.87424
2121.4	0.930019
2121.64	-3.79171
2121.88	1.916
2122.13	-0.910892
2122.37	-2.79087
2122.61	-0.876953
2122.85	-0.861588
2123.1	1.05141
2123.34	0.116352
2123.58	-1.76952
2123.82	1.08976
2124.07	-4.59956
2124.31	-3.64441
2124.55	1.10468
2124.79	-1.74223
2125.03	-1.74687
2125.28	-0.806492
2125.52	-6.49853
2125.76	1.07816
2126	4.86358
2126.25	-0.819183
2126.49	1.07355
2126.73	1.07493
2126.97	-7.4377
2127.21	2.02333
2127.46	3.91581
2127.7	0.139618
2127.94	1.09265
2128.18	-2.6818
2128.43	-1.73068
2128.67	0.167088
2128.91	0.176769
2129.15	1.13176
2129.39	-2.64128
2129.64	-2.63459
2129.88	-1.68239
2130.12	3.05078
2130.36	1.16826
2130.6	-1.65948
2130.85	-2.5977
2131.09	2.13231
2131.33	2.13689
2131.57	-2.58222
2131.81	3.08807
2132.06	0.258915
2132.3	-3.51205
2132.54	1.21378
2132.78	-1.61607
2133.02	1.21778
2133.27	-3.4947
2133.51	0.288593
2133.75	3.13044
2133.99	-3.46442
2134.23	-0.623714
2134.48	-6.2752
2134.72	0.34148
2134.96	-1.53772
2135.2	4.13286
2135.44	2.25349
2135.68	-1.51385
2135.93	-3.39532
2136.17	-0.56176
2136.41	0.379299
2136.65	-3.39411
2136.89	5.09425
2137.14	-3.37926
2137.38	-0.540417
2137.62	3.24065
2137.86	-3.34607
2138.1	1.38593
2138.34	4.22115
2138.59	-1.43818
2138.83	3.27615
2139.07	-5.19201
2139.31	1.42871
2139.55	2.39008
2139.79	1.43657
2140.03	-5.16624
2140.28	4.26001
2140.52	1.43629
2140.76	3.32438
2141	-1.38066
2141.24	-0.432701
2141.49	-1.36845
2141.73	3.34987
2141.97	-0.415817
2142.21	3.35038
2142.45	3.35572
2142.69	0.540657
2142.93	2.43985
2143.18	-2.25335
2143.42	-0.331242
2143.66	1.54707
2143.9	8.0368
2144.14	-0.411636
2144.38	1.48366
2144.62	1.50594
2144.87	0.58741
2145.11	-3.1592
2145.35	-3.16997
2145.59	-2.21824
2145.83	0.612789
2146.07	-0.320904
2146.31	-4.07595
2146.55	-2.19008
2146.8	1.57565
2147.04	-0.298717
2147.28	-2.17354
2147.52	2.52858
2147.76	1.59217
2148	2.53533
2148.24	-0.278385
2148.48	-6.84897
2148.73	3.48646
2148.97	0.672565
2149.21	2.55288
2149.45	-3.0789
2149.69	5.36752
2149.93	-0.27018
2150.17	3.48108
2150.42	-2.14714
2150.66	-1.20853
2150.9	-3.07851
2151.14	-3.07096
2151.38	3.50167
2151.62	5.39172
2151.86	5.4042
2152.1	-1.14542
2152.34	4.49218
2152.58	-0.183674
2152.83	1.69464
2153.07	2.635
2153.31	0.76075
2153.55	1.69992
2153.79	-2.04455
2154.03	5.45798
2154.27	-1.10056
2154.51	0.772312
2154.75	4.51343
2154.99	-3.92109
2155.24	-0.183331
2155.48	-1.12722
2155.72	-4.87069
2155.96	1.67064
2156.2	3.53762
2156.44	1.66914
2156.68	2.60707
2156.92	2.61307
2157.16	3.55392
2157.4	1.69353
2157.64	-1.09865
2157.89	-0.151688
2158.13	0.797169
2158.37	-0.123852
2158.61	-1.0494
2158.85	-1.04211
2159.09	1.76789
2159.33	-1.96635
2159.57	0.840237
2159.81	4.57891
2160.05	2.7098
2160.29	-1.96201
2160.53	-1.02959
2160.77	5.50416
2161.01	-1.96294
2161.25	2.70644
2161.5	1.77853
2161.74	2.71528
2161.98	0.852867
2162.22	2.7246
2162.46	-0.0670891
2162.7	3.67195
2162.94	1.8126
2163.18	4.61488
2163.42	-1.91239
2163.66	2.75392
2163.9	1.82444
2164.14	1.82733
2164.38	-4.69628
2164.62	1.82856
2164.86	-1.90192
2165.11	1.82623
2165.35	3.69813
2165.59	-0.950104
2165.83	0.920902
2166.07	-1.86725
2166.31	3.73115
2166.55	0.00619125
2166.79	1.87236
2167.03	0.0103264
2167.27	0.941139
2167.51	0.011097
2167.75	0.940327
2167.99	-2.78696
2168.23	0.924355
2168.47	1.84422
2168.71	-4.66294
2168.95	-1.86818
2169.19	4.64835
2169.43	3.73047
2169.67	-3.6952
2169.91	0.971928
2170.15	3.78308
2170.39	2.87405
2170.63	-0.83564
2170.87	2.89903
2171.11	-3.61601
2171.35	4.76336
2171.59	1.97301
2171.83	-0.827896
2172.07	-0.846466
2172.31	3.79456
2172.56	-2.71272
2172.79	2.86307
2173.04	3.793
2173.28	-3.63482
2173.51	1.94518
2173.76	1.02164
2174	3.81772
2174.24	1.04108
2174.48	2.9092
2174.72	-0.800705
2174.96	1.99392
2175.2	-0.78875
2175.44	8.5104
2175.68	-2.63871
2175.92	2.94056
2176.16	2.94499
2176.4	-2.62652
2176.64	-0.765366
2176.88	1.09274
2177.12	5.7406
2177.36	2.03067
2177.6	-1.67852
2177.84	-5.38822
2178.08	-1.66751
2178.32	0.197243
2178.55	0.199261
2178.8	2.05229
2179.03	0.193165
2179.28	-0.730797
2179.52	0.204601
2179.75	4.85299
2180	3.93028
2180.23	2.0784
2180.47	3.94039
2180.71	2.08754
2180.95	5.80399
2181.19	1.16469
2181.43	-4.4012
2181.67	2.09991
2181.91	3.95681
2182.15	1.17318
2182.39	-5.31989
2182.63	2.10433
2182.87	2.10569
2183.11	2.10711
2183.35	2.10464
2183.59	2.10098
2183.83	0.240658
2184.07	2.09158
2184.31	2.09038
2184.55	3.01625
2184.79	3.01923
2185.03	-1.60762
2185.27	0.253807
2185.51	1.18797
2185.75	2.12233
2185.99	5.83944
2186.23	2.14268
2186.47	0.299603
2186.7	-3.39922
2186.95	2.18081
2187.18	0.340755
2187.42	1.28419
2187.66	-0.557663
2187.9	0.383152
2188.14	-0.539261
2188.38	2.24747
2188.62	1.31672
2188.86	-0.542923
2189.1	0.381927
2189.34	2.23339
2189.58	-0.55587
2189.82	6.85584
2190.06	0.358307
2190.3	-0.56934
2190.54	0.36031
2190.78	2.21918
2191.01	-2.4089
2191.25	-0.547779
2191.49	-0.543747
2191.73	-6.10103
2191.97	5.96029
2192.21	-1.4511
2192.45	3.19323
2192.69	-0.509937
2192.93	-3.28581
2193.17	2.29022
2193.41	3.22861
2193.65	-1.40181
2193.89	1.39463
2194.13	5.12921
2194.36	0.506653
2194.6	3.31066
2194.84	1.46188
2195.08	-0.395802
2195.32	-0.396378
2195.56	3.32134
2195.8	-0.398376
2196.04	2.3848
2196.28	5.16397
2196.52	2.3677
2196.76	0.502514
2197	3.28093
2197.23	4.20464
2197.47	3.27365
2197.71	2.34367
2197.95	2.34717
2198.19	4.20663
2198.43	-2.27938
2198.67	-0.41246
2198.91	-2.25661
2199.15	1.47009
2199.38	4.27221
2199.62	2.42897
2199.86	-3.13127
2200.1	2.46031
2200.34	12.7127
2200.58	3.43567
2200.82	-0.2673
2201.06	5.33862
2201.3	2.55857
2201.54	4.43482
2201.77	-0.236683
2202.01	5.31369
2202.25	6.15849
2202.49	2.39243
2202.73	3.34724
2202.97	2.48795
2203.21	-3.06095
2203.45	7.16236
2203.68	0.647621
2203.92	-0.248875
2204.16	6.40276
2204.4	4.48883
2204.64	2.62346
2204.88	3.56504
2205.12	1.67701
2205.36	5.37078
2205.59	1.61942
2205.83	2.53101
2206.07	5.31679
2206.31	2.53091
2206.55	3.47198
2206.79	3.47565
2207.03	8.11171
2207.26	0.679131
2207.5	2.54647
2207.74	1.62579
2207.98	1.63573
2208.22	-0.21492
2208.46	1.65607
2208.7	-0.195847
2208.93	6.32969
2209.17	1.68216
2209.41	0.756893
2209.65	6.34906
2209.89	1.69482
2210.13	5.42093
2210.36	3.56177
2210.6	0.774399
2210.84	3.57634
2211.08	1.7211
2211.32	7.3205
2211.56	6.3969
2211.8	1.74474
2212.03	5.48437
2212.27	0.831848
2212.51	2.70467
2212.75	-0.089241
2212.99	5.5069
2213.23	-1.95714
2213.46	-0.0934143
2213.7	-1.9623
2213.94	1.7627
2214.18	4.56353
2214.42	2.70797
2214.66	0.859394
2214.89	-1.92494
2215.13	0.880508
2215.37	-0.981823
2215.61	-1.91164
2215.85	2.75953
2216.08	-0.0389824
2216.32	2.76365
2216.56	-0.970066
2216.8	1.83132
2217.04	-0.969776
2217.28	2.7645
2217.51	1.83221
2217.75	0.90136
2217.99	-0.0292969
2218.23	4.64018
2218.47	2.7737
2218.7	-1.89187
2218.94	-0.953514
2219.18	2.78826
2219.42	-0.00606155
2219.66	-0.932583
2219.9	-3.73078
2220.13	0.946911
2220.37	1.8863
2220.61	0.0173187
2220.85	1.88596
2221.09	-4.65605
2221.32	0.948521
2221.56	5.61207
2221.8	-3.73768
2222.04	3.72653
2222.27	3.72008
2222.51	2.78262
2222.75	1.84903
2222.99	-0.94796
2223.23	0.925251
2223.46	-0.936127
2223.7	-2.79739
2223.94	1.88229
2224.18	-3.71294
2224.42	0.971607
2224.65	0.0477676
2224.89	0.992653
2225.13	1.00143
2225.37	1.01006
2225.6	-0.852131
2225.84	-4.58652
2226.08	0.103352
2226.32	0.111492
2226.56	1.99364
2226.79	-6.43317
2227.03	-0.80294
2227.27	1.07925
2227.51	1.08572
2227.74	0.153023
2227.98	0.156021
2228.22	-1.71979
2228.46	1.09128
2228.69	0.151558
2228.93	-3.6006
2229.17	6.71094
2229.41	-2.66552
2229.64	-0.790138
2229.88	2.96671
2230.12	-0.774338
2230.36	-1.70362
2230.6	2.05608
2230.83	6.75617
2231.07	-4.49907
2231.31	1.14127
2231.55	-0.728073
2231.78	-0.719257
2232.02	-2.5913
2232.26	0.234844
2232.5	-1.63766
2232.73	2.12983
2232.97	4.01768
2233.21	0.263512
2233.45	1.21092
2233.68	0.277061
2233.92	2.16614
2234.16	-0.651783
2234.39	-3.4715
2234.63	-3.47301
2234.87	0.289345
2235.11	-1.59683
2235.34	0.279156
2235.58	3.08846
2235.82	-4.44381
2236.06	-4.44297
2236.29	-0.679893
2236.53	-3.49919
2236.77	-0.675671
2237	-3.49582
2237.24	1.20914
2237.48	2.1588
2237.72	-1.59736
2237.95	-2.52575
2238.19	-3.45379
2238.43	-0.614933
2238.67	-2.49016
2238.9	2.23218
2239.14	5.07275
2239.38	1.31408
2239.61	-2.45709
2239.85	-0.573139
2240.09	3.19519
2240.33	3.18453
2240.56	1.28974
2240.8	4.11348
2241.04	4.13035
2241.27	-0.571758
2241.51	-1.51297
2241.75	-2.45431
2241.99	-0.564438
2242.22	-2.44965
2242.46	-2.44677
2242.7	-1.49925
2242.93	0.393055
2243.17	2.28194
2243.41	-2.43969
2243.64	-1.50015
2243.88	-1.50525
2244.12	1.32325
2244.36	-4.33994
2244.59	-1.50779
2244.83	-4.33432
2245.07	-3.3811
2245.3	-1.47903
2245.54	3.25784
2245.78	4.212
2246.01	0.43845
2246.25	1.39154
2246.49	-1.43824
2246.72	1.40522
2246.96	-2.37519
2247.2	-0.477924
2247.43	-3.31163
2247.67	1.42369
2247.91	1.42532
2248.14	5.21064
2248.38	0.476437
2248.62	-0.472149
2248.85	2.36455
2249.09	-0.476326
2249.33	-3.31698
2249.56	-2.37217
2249.8	0.472561
2250.04	3.31635
2250.27	-2.36292
2250.51	0.471977
2250.75	3.30356
2250.98	-6.16431
2251.22	-1.44248
2251.46	4.22489
2251.69	2.32829
2251.93	-0.510078
2252.17	0.436691
2252.4	-2.39614
2252.64	-0.499588
2252.88	-1.43849
2253.11	-1.42771
2253.35	-0.462646
2253.59	1.44493
2253.82	-2.3338
2254.06	-0.430683
2254.3	1.47144
2254.53	1.47861
2254.77	0.535477
2255.01	-0.412006
2255.24	-2.31157
2255.48	-0.413612
2255.72	-6.10235
2255.95	3.38086
2256.19	-1.3587
2256.42	-2.30127
2256.66	-0.397736
2256.9	5.30111
2257.13	6.25679
2257.37	1.51836
2257.61	1.52447
2257.84	-0.368534
2258.08	-1.31413
2258.32	-2.26167
2258.55	1.5385
2258.79	1.5411
2259.02	-1.30468
2259.26	-1.29969
2259.5	4.40629
2259.73	-0.340736
2259.97	1.56297
2260.2	-0.333393
2260.44	-1.28002
2260.68	0.624786
2260.91	8.23421
2261.15	-0.316666
2261.39	0.645901
2261.62	-0.297615
2261.86	4.46155
2262.1	0.658218
2262.33	6.37113
2262.57	0.664898
2262.8	1.62212
2263.04	-0.273823
2263.28	-1.21793
2263.51	-3.11363
2263.75	0.707909
2263.98	-3.09179
2264.22	4.54975
2264.46	-2.1122
2264.69	-0.191765
2264.93	2.68251
2265.16	-2.08184
2265.4	4.61045
2265.64	-2.06819
2265.87	-1.11142
2266.11	1.75625
2266.34	-0.156551
2266.58	1.74619
2266.81	-1.12631
2267.05	-1.13426
2267.29	1.72174
2267.52	-2.10054
2267.76	-2.10492
2267.99	-4.0174
2268.23	-2.11638
2268.47	0.739182
2268.7	-2.12283
2268.94	0.739445
2269.17	-5.93055
2269.41	1.70731
2269.65	-2.09872
2269.88	-0.179741
2270.12	-2.07793
2270.35	-3.0207
2270.59	0.811646
2270.82	1.77493
2271.06	-3.95366
2271.3	0.833435
2271.53	3.70895
2271.77	-0.110023
2272	-1.06053
2272.24	-0.0966606
2272.47	-0.0921249
2272.71	1.82289
2272.95	-0.0878868
2273.18	-1.04186
2273.42	-2.95258
2273.65	-0.0791969
2273.89	5.66549
2274.12	1.84069
2274.36	3.7578
2274.6	-1.02497
2274.83	2.80663
2275.07	-0.0618858
2275.3	-4.84491
2275.54	-0.055191
2275.77	-1.00921
2276.01	-2.92403
2276.24	-1.96048
2276.48	-0.035717
2276.72	-0.983791
2276.95	0.941578
2277.18	1.90864
2277.42	0.959587
2277.66	0.972813
2277.89	3.86599
2278.13	1.96312
2278.36	1.02019
2278.6	-1.85402
2278.83	-0.889706
2279.07	0.0725708
2279.3	-1.84819
2279.54	-2.80929
2279.78	1.02715
2280.01	2.93188
2280.24	0.0437202
2280.48	-2.84205
2280.72	-0.930008
2280.95	0.0237122
2281.19	2.89633
2281.42	-2.85757
2281.66	0.0154343
2281.89	1.93059
2282.13	-0.939232
2282.36	1.9408
2282.6	0.0303574
2282.83	-3.79675
2283.07	-0.910038
2283.3	1.01848
2283.54	-1.84847
2283.77	0.0867805
2284.01	2.02622
2284.24	-2.76099
2284.48	-0.82095
2284.71	1.1136
2284.95	1.11981
2285.19	1.13024
2285.42	-3.67098
2285.65	3.06991
2285.89	-1.73886
2286.12	-1.744
2286.36	0.169033
2286.59	0.169987
2286.83	3.06042
2287.06	-2.70345
2287.3	0.20142
2287.54	-0.745399
2287.77	-0.738033
2288	3.12063
2288.24	-2.6472
2288.47	-3.61068
2288.71	-2.64995
2288.94	2.16294
2289.18	0.232689
2289.41	-1.70104
2289.65	4.06247
2289.88	1.16553
2290.12	0.191296
2290.35	0.188702
2290.59	-0.77375
2290.82	2.1129
2291.06	2.11621
2291.29	2.12425
2291.53	2.1367
2291.76	-0.734558
2292	0.238209
2292.23	3.13456
2292.47	-1.66959
2292.7	0.265301
2292.94	-2.61296
2293.17	1.25035
2293.41	-2.59458
2293.64	-1.62328
2293.88	2.2384
2294.11	1.27955
2294.34	-1.61173
2294.58	1.27814
2294.81	1.27538
2295.05	1.27132
2295.28	-0.657402
2295.52	-1.62236
2295.75	2.22764
2295.99	-1.62592
2296.22	0.298492
2296.46	5.10571
2296.69	-1.6425
2296.93	-3.56548
2297.16	-1.63551
2297.39	5.10838
2297.63	-0.655891
2297.86	0.317776
2298.1	-5.447
2298.33	0.346203
2298.57	-2.53345
2298.8	3.25655
2299.04	-0.588123
2299.27	3.28064
2299.51	-1.52957
2299.74	-0.55579
2299.97	-0.549076
2300.21	-0.54628
2300.44	-1.5074
2300.68	-0.540249
2300.91	-0.532825
2301.15	-3.41828
2301.38	-1.48069
2301.61	1.42207
2301.85	1.42805
2302.08	-4.3593
2302.32	-0.495792
2302.55	3.36527
2302.79	1.43597
2303.02	-4.35044
2303.25	4.33849
2303.49	2.40972
2303.72	2.41274
2303.96	0.486881
2304.19	1.45919
2304.43	-1.427
2304.66	-1.41802
2304.89	0.52071
2305.13	-4.29942
2305.36	0.540024
2305.6	1.51389
2305.83	-2.34516
2306.07	-3.30499
2306.3	-0.398087
2306.53	0.576447
2306.77	3.48145
2307	-5.21312
2307.24	3.48934
2307.47	3.49193
2307.7	-1.34003
2307.94	-2.30677
2308.17	1.5597
2308.41	2.52638
2308.64	-1.33734
2308.87	-1.33353
2309.11	-0.361938
2309.34	-0.352821
2309.58	3.52296
2309.81	-7.09763
2310.04	-1.28262
2310.28	1.63039
2310.51	5.50744
2310.75	-0.291866
2310.98	-0.288906
2311.21	-2.22319
2311.45	0.674362
2311.68	7.42361
2311.92	0.639042
2312.15	1.59602
2312.38	-7.09705
2312.62	4.48496
2312.85	1.58699
2313.08	2.55112
2313.32	-0.340054
2313.55	-1.29699
2313.79	5.47438
2314.02	-0.299957
2314.25	2.61225
2314.49	1.66108
2314.72	-3.15657
2314.95	-1.20675
2315.19	2.67782
2315.42	0.75341
2315.66	0.748016
2315.89	-0.223827
2316.12	2.67354
2316.36	-1.19863
2316.59	0.719006
2316.82	4.57576
2317.06	-0.25375
2317.29	-0.250519
2317.52	0.720943
2317.76	2.65835
2317.99	1.70643
2318.23	1.71696
2318.46	2.67434
2318.69	0.74078
2318.93	1.70554
2319.16	0.738346
2319.39	-0.228893
2319.63	2.66516
2319.86	7.48989
2320.09	4.596
2320.33	2.67023
2320.56	1.71022
2320.79	3.64376
2321.03	1.72125
2321.26	1.73059
2321.5	2.70591
2321.73	3.68234
2321.96	6.59189
2322.2	4.67538
2322.43	8.55702
2322.66	-1.09415
2322.9	7.61362
2323.13	6.64874
2323.36	8.58788
2323.6	10.5285
2323.83	10.5349
2324.06	12.4756
2324.3	12.4808
2324.53	18.2842
2324.76	12.4839
2325	12.4759
2325.23	24.0615
2325.46	21.1458
2325.7	25.9654
2325.93	32.7164
2326.16	36.5683
2326.4	53.9316
2326.63	70.3218
2326.86	93.4585
2327.09	131.055
2327.33	179.243
2327.56	267.906
2327.79	344.026
2328.03	355.533
2328.26	341.999
2328.49	266.842
2328.73	172.39
2328.96	118.421
2329.19	73.0999
2329.43	65.3739
2329.66	49.938
2329.89	42.2277
2330.13	30.6696
2330.36	23.9383
2330.59	20.0841
2330.82	16.2298
2331.06	15.2647
2331.29	5.63549
2331.52	7.56697
2331.76	5.64928
2331.99	2.76826
2332.22	9.52511
2332.46	-0.118366
2332.69	-2.0493
2332.92	-1.0888
2333.16	12.3895
2333.39	0.831936
2333.62	-0.133167
2333.85	0.82756
2334.09	2.75111
2334.32	1.78545
2334.55	0.818951
2334.79	3.69727
2335.02	2.7314
2335.25	0.805763
2335.48	1.76776
2335.72	-1.11765
2335.95	1.77005
2336.18	-3.03471
2336.41	0.812374
2336.65	-1.11337
2336.88	4.6549
2337.11	2.73123
2337.34	4.65375
2337.58	2.72986
2337.81	1.76774
2338.04	4.64938
2338.28	1.76358
2338.51	3.68497
2338.74	1.7613
2338.97	2.7218
2339.21	1.76238
2339.44	1.76354
2339.67	-3.04246
2339.91	5.60732
2340.14	2.72074
2340.37	-1.12793
2340.6	1.74876
2340.84	3.6636
2341.07	4.61517
2341.3	0.762981
2341.53	0.751072
2341.77	1.6965
2342	-5.02946
2342.23	-3.11757
2342.46	-2.16488
2342.7	6.45805
2342.93	1.65895
2343.16	2.61412
2343.39	-2.18098
2343.63	-1.22354
2343.86	-1.22671
2344.09	6.43849
2344.32	-0.27261
2344.56	5.47953
2344.79	-0.273048
2345.02	2.59969
2345.25	0.677818
2345.49	-1.2453
2345.72	-1.25326
2345.95	0.651501
2346.18	-0.315723
2346.41	0.632641
2346.65	3.49998
2346.88	-3.20859
2347.11	1.57432
2347.34	-2.26225
2347.58	2.51865
2347.81	1.55676
2348.04	4.42598
2348.27	-1.32047
2348.5	-0.363029
2348.74	-1.32224
2348.97	3.46159
2349.2	-1.33458
2349.43	-1.34486
2349.67	0.550137
2349.9	2.44324
2350.13	3.37555
2350.36	-2.38596
2350.59	0.449558
2350.83	1.35186
2351.06	0.317986
2351.29	2.27369
2351.52	-4.3005
2351.75	2.42653
2351.99	0.433079
2352.22	1.34154
2352.45	-1.52549
2352.68	-3.43756
2352.91	-0.601891
2353.15	-1.59359
2353.38	-1.62457
2353.61	-2.57659
2353.84	0.270477
2354.07	-0.696804
2354.31	-0.704678
2354.54	-1.66691
2354.77	-5.47812
2355	-0.715546
2355.23	-5.49009
2355.47	-7.40699
2355.7	3.06123
2355.93	3.04789
2356.16	-1.72923
2356.39	-4.60222
2356.63	1.09014
2356.86	0.110912
2357.09	1.03808
2357.32	0.0686226
2357.55	0.0514221
2357.79	1.93572
2358.02	-0.93322
2358.25	3.80249
2358.48	4.73663
2358.71	-4.78198
2358.94	-5.75125
2359.18	0.883125
2359.41	-1.98237
2359.64	1.80206
2359.87	3.68359
2360.1	-2.0347
2360.33	2.69133
2360.57	0.769791
2360.8	1.69598
2361.03	4.51895
2361.26	4.4946
2361.49	3.52122
2361.72	1.59992
2361.96	-2.21665
2362.19	-1.29371
2362.42	-3.21438
2362.65	0.548878
2362.88	-1.36999
2363.11	-2.34081
2363.34	-3.31068
2363.58	1.39839
2363.81	1.37601
2364.04	-0.538792
2364.27	-0.56152
2364.5	0.360352
2364.73	-5.33886
2364.97	0.310837
