#Acq. time (s)=	30
#Accumulations=	2
#Range (cm-¹)=	1200...2365
#Windows=	3
#Auto scanning=	Off
#Autofocus=	Off
#Macrospot=	Off
#AutoExposure=	Off
#Spike filter=	Multiple accum.
#Delay time (s)=	2
#Binning=	1
#Readout mode=	Signal
#DeNoise=	Off
#ICS correction=	On
#Dark correction=	Off
#Inst. Process=	Off
#Detector Gain=	Best Dynamic
#Detector ADC=	50 kHz HS
#Detector temperature (°C)=	-60.09
#Instrument=	LabRAM HR Evol
#Detector=	SIN-EM FIVIS
#Objective=	x100_VIS_LWD
#Grating=	1800 (450-850nm)
#ND Filter=	100%
#Laser=	532nm_Edge
#Hole=	100.021
#Temperature=	0
#Range=	Visible
#StageXY=	75x50mm Scan+
#StageZ=	Z motor
#X (µm)=	0
#Y (µm)=	0
#Z (µm)=	-56
#Full time(mm:ss)=	3:17
#Project=	21_11_26
#Sample=	BU19(2)w
#Site=	
#Title=	BU19(2)w-A-FF1-FI09-V_1800 (450-850nm)_532nm_Edge_100%_x100_VIS_LWD_H100um_30sX2
#Remark=	
#Date=	26.11.2021 16:30
#Acquired=	26.11.2021 16:30:03
#Base:Fit=	16.12.2021 16:00:56
#Base:Fit=	16.12.2021 16:08:46
#Base:Sub=	16.12.2021 16:08:47
1202.72	0.649239
1203	10.3986
1203.28	13.615
1203.56	11.3717
1203.84	10.1922
1204.11	7.95885
1204.39	5.73234
1204.67	11.0611
1204.95	9.94377
1205.23	10.9511
1205.5	6.56895
1205.78	11.8533
1206.06	4.2444
1206.34	3.07835
1206.61	1.91259
1206.89	5.03432
1207.17	11.3655
1207.45	2.70116
1207.73	2.61677
1208	10.026
1208.28	2.45106
1208.56	-0.844711
1208.84	9.76186
1209.11	10.7368
1209.39	3.15588
1209.67	6.27843
1209.95	-1.28619
1210.23	-5.64734
1210.5	-4.67134
1210.78	5.90479
1211.06	-3.81878
1211.34	7.82043
1211.61	10.9077
1211.89	6.53041
1212.17	0.014389
1212.45	3.09783
1212.72	0.857231
1213	-4.58093
1213.28	1.69884
1213.56	1.5918
1213.83	2.55366
1214.11	-2.87932
1214.39	3.41453
1214.67	2.2553
1214.94	-2.10057
1215.22	4.18768
1215.5	-2.30299
1215.78	1.85086
1216.05	3.87209
1216.33	2.68633
1216.61	0.429398
1216.89	-1.83202
1217.16	1.22446
1217.44	-1.02869
1217.72	5.2176
1218	-2.34597
1218.27	-5.65565
1218.55	-1.53337
1218.83	-3.78058
1219.1	-3.8994
1219.38	-0.832466
1219.66	-0.951447
1219.94	-0.0124207
1220.21	-0.138733
1220.49	-5.55872
1220.77	-3.55236
1221.04	2.69163
1221.32	6.80969
1221.6	2.43758
1221.88	0.186501
1222.15	-1.0123
1222.43	-2.21793
1222.71	-0.25119
1222.98	3.8266
1223.26	-1.61909
1223.54	-6.00156
1223.81	2.30511
1224.09	-2.06921
1224.37	-4.3288
1224.65	-1.30147
1224.92	-3.54992
1225.2	-1.57182
1225.48	-2.75367
1225.76	-3.92538
1226.03	0.180183
1226.31	1.12022
1226.59	2.04612
1226.86	1.91454
1227.14	-1.39307
1227.42	-2.58779
1227.69	1.46786
1227.97	-0.839806
1228.25	1.09463
1228.52	-8.54922
1228.8	-7.68841
1229.08	3.6912
1229.35	4.60683
1229.63	-1.64632
1229.91	4.71345
1230.18	2.39961
1230.46	3.25019
1230.74	-4.2803
1231.01	0.864006
1231.29	-2.46944
1231.57	-2.74361
1231.84	-4.96268
1232.12	-2.99326
1232.4	2.12717
1232.67	-2.21596
1232.95	5.00547
1233.23	-2.4845
1233.5	-1.57267
1233.78	3.54607
1234.06	4.4694
1234.33	7.49693
1234.61	-3.1334
1234.89	-9.55946
1235.16	-3.37384
1235.44	3.85893
1235.71	3.73463
1235.99	-7.95198
1236.27	1.38476
1236.54	5.4572
1236.82	0.0586166
1237.1	0.965584
1237.37	0.81646
1237.65	-3.54408
1237.93	-0.552223
1238.2	0.338112
1238.48	5.42497
1238.76	-2.08002
1239.03	-1.18307
1239.31	1.81778
1239.58	5.86907
1239.86	2.58431
1240.14	-3.84138
1240.41	3.36266
1240.69	-0.961105
1240.97	2.05521
1241.24	-1.2156
1241.52	1.80296
1241.79	4.81014
1242.07	2.56879
1242.35	-5.95364
1242.62	-0.842102
1242.9	6.36952
1243.18	7.30099
1243.45	8.23224
1243.73	4.95761
1244	4.83083
1244.28	0.515083
1244.56	2.48283
1244.83	3.39794
1245.11	8.50297
1245.39	3.11658
1245.66	5.06361
1245.94	9.0968
1246.21	15.2217
1246.49	11.9415
1246.76	11.8083
1247.04	11.6834
1247.32	10.5097
1247.59	10.377
1247.87	6.06511
1248.14	8.02431
1248.42	14.1432
1248.7	16.0925
1248.97	15.9646
1249.25	8.52661
1249.52	15.7338
1249.8	18.7428
1250.08	12.3425
1250.35	14.3142
1250.63	13.1269
1250.9	14.0273
1251.18	17.0207
1251.45	16.881
1251.73	9.43037
1252.01	24.9641
1252.28	16.4703
1252.56	5.89211
1252.83	16.1977
1253.11	20.2342
1253.39	18.01
1253.66	12.666
1253.94	20.8993
1254.21	20.801
1254.49	14.443
1254.76	14.3503
1255.04	20.5108
1255.31	18.3089
1255.59	32.8237
1255.87	22.2684
1256.14	20.0625
1256.42	29.3548
1256.69	37.6076
1256.97	50.0492
1257.24	63.5248
1257.52	71.764
1257.79	68.4991
1258.07	68.3766
1258.35	63.0356
1258.62	48.2982
1258.9	57.5723
1259.17	61.6063
1259.45	61.4966
1259.72	71.8467
1260	84.2936
1260.27	89.4824
1260.55	106.039
1260.82	118.416
1261.1	135.978
1261.37	146.254
1261.65	157.588
1261.92	199.251
1262.2	208.804
1262.48	227.914
1262.75	232.199
1263.02	232.619
1263.3	247.782
1263.58	229.803
1263.85	208.1
1264.13	191.519
1264.4	167.641
1264.68	135.247
1264.95	108.876
1265.23	101.417
1265.5	97.143
1265.78	84.4938
1266.05	80.1904
1266.33	67.5595
1266.6	64.3451
1266.88	76.8171
1267.15	60.0343
1267.43	62.0712
1267.7	62.0243
1267.98	58.8427
1268.25	67.1763
1268.53	52.5039
1268.8	45.1391
1269.08	56.6031
1269.35	52.3523
1269.63	58.5732
1269.9	60.5762
1270.18	64.6505
1270.45	61.379
1270.73	57.0771
1271	63.2411
1271.28	62.0876
1271.55	47.3473
1271.83	59.8062
1272.1	61.8323
1272.38	54.464
1272.65	55.4761
1272.93	53.3619
1273.2	53.3243
1273.47	62.7194
1273.75	66.8795
1274.03	61.6058
1274.3	68.9154
1274.57	66.7722
1274.85	76.1487
1275.12	73.9736
1275.4	77.0509
1275.67	82.2459
1275.95	81.1566
1276.22	82.1686
1276.5	90.541
1276.77	94.7072
1277.05	97.8277
1277.32	99.89
1277.6	115.63
1277.87	122.972
1278.14	120.859
1278.42	131.351
1278.69	158.667
1278.97	161.833
1279.24	187.058
1279.52	233.333
1279.79	282.697
1280.07	326.787
1280.34	436.06
1280.61	534.844
1280.89	727.313
1281.16	1021.86
1281.44	1382.98
1281.71	1948.57
1281.99	2627.74
1282.26	3394.97
1282.53	4065.82
1282.81	4472.64
1283.08	4606.57
1283.36	4161.27
1283.63	3582.49
1283.91	2809.79
1284.18	2019.47
1284.45	1454.91
1284.73	988.193
1285	744.932
1285.28	543.613
1285.55	424.248
1285.83	334.535
1286.1	267.117
1286.37	240.827
1286.65	188.128
1286.92	172.242
1287.2	158.511
1287.47	128.977
1287.75	127.853
1288.02	111.989
1288.29	104.563
1288.57	108.733
1288.84	98.1796
1289.12	85.5287
1289.39	94.9952
1289.66	90.7843
1289.94	72.8848
1290.21	76.0472
1290.49	78.1523
1290.76	77.0672
1291.03	66.4853
1291.31	61.1805
1291.58	47.4574
1291.86	53.7469
1292.13	61.0862
1292.4	55.7949
1292.68	41.0331
1292.95	51.5318
1293.22	53.6019
1293.5	48.3197
1293.77	40.969
1294.05	46.2727
1294.32	31.5499
1294.59	39.9798
1294.87	33.6326
1295.14	52.584
1295.42	45.2093
1295.69	39.9751
1295.96	32.6422
1296.24	35.8867
1296.51	43.3234
1296.79	32.7525
1297.06	17.9428
1297.33	32.7129
1297.61	33.7336
1297.88	26.2987
1298.15	22.0334
1298.43	31.4947
1298.7	29.3866
1298.97	27.2544
1299.25	34.6154
1299.52	30.3659
1299.79	22.9484
1300.07	22.9396
1300.34	30.344
1300.62	10.2897
1300.89	24.0137
1301.16	21.8916
1301.44	8.15766
1301.71	23.9972
1301.98	18.7347
1302.25	16.6382
1302.53	19.8153
1302.8	15.5926
1303.08	12.422
1303.35	15.5842
1303.62	7.12402
1303.9	17.6667
1304.17	8.16188
1304.44	19.7828
1304.72	11.3393
1304.99	13.4542
1305.26	10.2785
1305.54	16.5992
1305.81	15.5246
1306.08	12.3411
1306.35	14.432
1306.63	7.03557
1306.9	5.98075
1307.18	8.09929
1307.45	7.06411
1307.72	7.07806
1308	0.759834
1308.27	12.3732
1308.54	15.5563
1308.81	13.4536
1309.09	14.5284
1309.36	4.01123
1309.63	6.15093
1309.91	9.34753
1310.18	4.09735
1310.45	5.16723
1310.73	-2.20833
1311	3.08661
1311.27	9.44183
1311.55	2.07967
1311.82	10.5479
1312.09	3.1889
1312.37	0.0605927
1312.64	0.0968018
1312.91	3.29397
1313.18	-0.910454
1313.46	0.154144
1313.73	2.28667
1314	6.52544
1314.28	6.54371
1314.55	4.45882
1314.82	3.43628
1315.09	3.47369
1315.37	-2.82076
1315.64	-0.668831
1315.91	-3.79529
1316.18	2.58404
1316.46	7.8913
1316.73	5.8037
1317	1.60667
1317.28	-2.58808
1317.55	4.83723
1317.82	-3.56474
1318.09	-4.57814
1318.37	3.91354
1318.64	-0.273109
1318.91	6.10351
1319.18	-6.5375
1319.46	-11.7853
1319.73	-6.46935
1320	0.959846
1320.28	-1.10783
1320.55	7.38401
1320.82	-2.08965
1321.09	-2.063
1321.37	4.29319
1321.64	-0.972313
1321.91	-0.960304
1322.18	1.17572
1322.46	2.24629
1322.73	0.166954
1323	4.41613
1323.27	-1.88067
1323.55	5.52627
1323.82	-1.79737
1324.09	-1.74722
1324.36	-1.69877
1324.64	7.83539
1324.91	-5.8232
1325.18	-5.7776
1325.45	1.65849
1325.73	-0.425415
1326	-1.47175
1326.27	-1.47489
1326.54	0.615021
1326.81	-4.62203
1327.09	4.89112
1327.36	-2.39025
1327.63	5.09447
1327.9	3.07628
1328.18	-1.05108
1328.45	-5.17774
1328.72	0.184845
1328.99	-3.94958
1329.27	4.55521
1329.54	-3.84027
1329.81	-2.71896
1330.08	-1.61067
1330.35	4.76949
1330.63	2.70531
1330.9	4.85554
1331.17	-7.76096
1331.44	-5.61884
1331.71	3.8904
1331.99	6.0149
1332.26	6.04169
1332.53	3.97047
1332.8	6.10749
1333.07	7.18762
1333.35	-0.145164
1333.62	-1.16328
1333.89	4.12682
1334.16	6.26439
1334.43	-2.10036
1334.71	2.14117
1334.98	-6.21408
1335.25	7.4773
1335.52	0.179291
1335.79	-1.86947
1336.07	-4.96484
1336.34	2.43005
1336.61	-3.8075
1336.88	1.49147
1337.15	7.83971
1337.43	-1.53448
1337.7	3.76851
1337.97	3.82829
1338.24	8.06701
1338.51	3.92493
1338.78	11.3143
1339.06	0.89698
1339.33	5.14776
1339.6	7.31181
1339.87	4.24731
1340.14	8.51493
1340.42	1.26108
1340.69	6.57521
1340.96	2.46407
1341.23	4.63184
1341.5	-0.532944
1341.77	0.583702
1342.04	-3.53823
1342.32	6.99316
1342.59	7.04977
1342.86	-2.3159
1343.13	-0.168892
1343.4	6.17253
1343.67	6.24383
1343.95	-8.32224
1344.22	1.16888
1344.49	-7.11656
1344.76	2.37624
1345.03	9.76857
1345.3	0.422737
1345.58	9.89243
1345.85	-3.64292
1346.12	6.86504
1346.39	7.95901
1346.66	0.68586
1346.93	12.2193
1347.2	11.2289
1347.47	7.1095
1347.75	6.12411
1348.02	12.4457
1348.29	-1.033
1348.56	7.38222
1348.83	4.33396
1349.1	5.44703
1349.37	5.51601
1349.65	7.6671
1349.92	8.77747
1350.19	10.9293
1350.46	14.1222
1350.73	13.1501
1351	0.725769
1351.27	18.4775
1351.54	10.2271
1351.81	19.6501
1352.09	14.5317
1352.36	8.38033
1352.63	16.8007
1352.9	9.63189
1353.17	8.71117
1353.44	22.3455
1353.71	14.1967
1353.98	13.3393
1354.25	17.5028
1354.53	18.4784
1354.8	21.5795
1355.07	18.5666
1355.34	17.6288
1355.61	18.7239
1355.88	11.5278
1356.15	23.0824
1356.42	17.9896
1356.69	11.8284
1356.96	18.145
1357.24	23.4234
1357.51	18.3148
1357.78	17.3578
1358.05	19.5133
1358.32	19.5906
1358.59	13.4402
1358.86	23.8961
1359.13	26.045
1359.4	26.12
1359.67	14.7924
1359.94	25.2464
1360.22	30.4987
1360.49	15.0157
1360.76	21.3022
1361.03	32.7755
1361.3	31.8283
1361.57	24.6738
1361.84	38.2336
1362.11	27.9679
1362.38	27.0178
1362.65	45.7437
1362.92	39.6179
1363.19	47.9963
1363.46	49.1397
1363.73	55.4763
1364	52.4866
1364.28	55.7116
1364.55	60.99
1364.82	44.5083
1365.09	55.9884
1365.36	45.7097
1365.63	39.5708
1365.9	43.7836
1366.17	45.9264
1366.44	51.1725
1366.71	52.277
1366.98	47.1701
1367.25	54.4639
1367.52	60.7465
1367.79	53.6014
1368.06	74.3936
1368.33	88.9799
1368.6	162.487
1368.87	230.835
1369.15	254.736
1369.41	208.341
1369.68	156.765
1369.95	105.147
1370.23	79.386
1370.5	65.0012
1370.77	70.235
1371.04	50.6885
1371.31	60.0669
1371.58	60.1329
1371.85	55.0287
1372.12	59.2087
1372.39	65.451
1372.66	63.4434
1372.93	73.8215
1373.2	80.0863
1373.47	69.8642
1373.74	69.9511
1374.01	64.8896
1374.28	75.2877
1374.55	83.6259
1374.82	79.601
1375.09	85.8765
1375.36	83.9026
1375.63	82.9854
1375.9	85.1733
1376.17	94.5483
1376.44	83.3329
1376.71	103.999
1376.98	97.8836
1377.25	107.197
1377.52	90.7646
1377.79	101.185
1378.06	98.2505
1378.33	117.994
1378.6	118.199
1378.87	115.322
1379.14	131.959
1379.41	123.812
1379.68	136.264
1379.95	147.681
1380.22	132.285
1380.49	153.935
1380.76	166.21
1381.03	168.265
1381.3	175.481
1381.57	189.003
1381.84	204.468
1382.11	211.642
1382.38	239.346
1382.65	248.566
1382.92	297.83
1383.19	326.528
1383.46	354.223
1383.73	418.816
1384	475.233
1384.27	589.064
1384.54	735.808
1384.81	889.79
1385.08	1174.15
1385.34	1633.14
1385.61	2351.23
1385.88	3493.44
1386.15	5188.41
1386.42	7464.71
1386.69	9635.52
1386.96	10307.3
1387.23	9207.19
1387.5	6857.87
1387.77	4541.9
1388.04	2807
1388.31	1785.46
1388.58	1216.78
1388.85	865.324
1389.12	680.857
1389.39	536.675
1389.66	446.477
1389.93	392.223
1390.2	330.584
1390.46	291.402
1390.73	270.873
1391	241.236
1391.27	225.845
1391.54	201.333
1391.81	186.047
1392.08	179.952
1392.35	165.657
1392.62	162.643
1392.89	147.356
1393.16	138.223
1393.43	133.191
1393.7	132.258
1393.97	116.998
1394.23	128.35
1394.5	120.26
1394.77	106.034
1395.04	108.184
1395.31	106.267
1395.58	105.384
1395.85	108.585
1396.12	112.799
1396.39	98.5734
1396.66	93.5515
1396.93	94.6662
1397.2	99.872
1397.46	95.8576
1397.73	92.8687
1398	97.0551
1398.27	90.0034
1398.54	88.0788
1398.81	93.3228
1399.08	95.49
1399.35	89.4701
1399.62	82.4441
1399.89	89.7341
1400.16	98.0477
1400.42	93.0387
1400.69	91.1234
1400.96	92.2976
1401.23	86.2823
1401.5	87.4098
1401.77	94.7074
1402.04	90.7189
1402.31	90.8823
1402.58	92.1069
1402.84	94.365
1403.11	91.4678
1403.38	102.919
1403.65	106.134
1403.92	108.299
1404.19	110.424
1404.46	112.486
1404.73	117.752
1404.99	137.337
1405.26	135.371
1405.53	151.854
1405.8	160.126
1406.07	185.827
1406.34	212.549
1406.61	233.129
1406.87	255.762
1407.14	290.736
1407.41	320.597
1407.68	369.946
1407.95	419.292
1408.22	459.415
1408.49	467.758
1408.76	451.492
1409.02	434.206
1409.29	365.646
1409.56	291.942
1409.83	247.971
1410.1	206.038
1410.37	182.553
1410.63	142.612
1410.9	125.232
1411.17	109.905
1411.44	98.699
1411.71	93.655
1411.98	73.2508
1412.25	71.304
1412.51	76.5523
1412.78	57.2259
1413.05	58.4329
1413.32	59.7119
1413.59	56.8111
1413.86	49.6383
1414.12	50.6212
1414.39	46.6497
1414.66	49.9076
1414.93	34.665
1415.2	48.1103
1415.47	38.9792
1415.73	49.3519
1416	30.9791
1416.27	42.3868
1416.54	41.4739
1416.81	37.481
1417.07	33.4872
1417.34	28.467
1417.61	32.6911
1417.88	41.0256
1418.15	27.777
1418.42	29.9381
1418.68	34.1558
1418.95	35.292
1419.22	35.3964
1419.49	28.3079
1419.76	38.6773
1420.02	31.5702
1420.29	30.6271
1420.56	29.6862
1420.83	31.8237
1421.1	26.7734
1421.36	34.0445
1421.63	29.0068
1421.9	29.1137
1422.17	26.159
1422.44	35.5335
1422.7	32.5848
1422.97	26.5686
1423.24	28.8013
1423.51	23.8322
1423.77	35.0367
1424.04	30.8398
1424.31	31.99
1424.58	28.9296
1424.85	28.0058
1425.11	28.1307
1425.38	26.2405
1425.65	22.2484
1425.92	24.3882
1426.19	23.4903
1426.45	25.6357
1426.72	20.5916
1426.99	17.5938
1427.26	20.7476
1427.52	20.823
1427.79	23.9631
1428.06	12.7694
1428.33	16.9523
1428.59	19.093
1428.86	6.90509
1429.13	23.3903
1429.4	8.1337
1429.67	13.3599
1429.93	16.5408
1430.2	19.7271
1430.47	15.7456
1430.74	9.70714
1431	10.8497
1431.27	14.053
1431.54	14.1733
1431.81	12.2292
1432.07	19.5096
1432.34	13.4346
1432.61	9.40948
1432.87	16.6752
1433.14	5.46802
1433.41	13.7407
1433.68	12.7809
1433.95	8.75149
1434.21	12.9261
1434.48	15.061
1434.75	14.1638
1435.01	8.12399
1435.28	12.3195
1435.55	7.28951
1435.82	9.43047
1436.08	9.52092
1436.35	11.6587
1436.62	5.59926
1436.89	9.78437
1437.15	16.0164
1437.42	12.005
1437.69	3.90133
1437.95	3.98628
1438.22	12.2675
1438.49	9.29009
1438.76	6.31775
1439.02	4.36516
1439.29	6.50703
1439.56	4.55151
1439.82	14.8977
1440.09	7.82935
1440.36	5.88593
1440.63	4.95753
1440.89	5.05104
1441.16	3.09018
1441.43	12.4119
1441.69	7.36848
1441.96	6.42225
1442.23	5.48019
1442.49	4.55487
1442.76	5.67032
1443.03	11.9237
1443.3	1.74771
1443.56	10.0291
1443.83	8.05687
1444.1	1.98693
1444.36	9.24725
1444.63	7.28782
1444.9	9.44212
1445.16	9.54326
1445.43	4.5186
1445.7	0.496227
1445.97	3.65432
1446.23	8.86382
1446.5	2.79002
1446.77	5.9476
1447.03	0.899868
1447.3	0.980122
1447.57	5.16113
1447.83	7.28852
1448.1	8.39156
1448.37	-0.75193
1448.63	2.41681
1448.9	-2.61609
1449.17	5.67509
1449.43	-2.44829
1449.7	5.8352
1449.97	3.85923
1450.23	7.0082
1450.5	7.08061
1450.77	4.08212
1451.03	4.15977
1451.3	-0.887897
1451.57	7.38731
1451.83	1.31396
1452.1	3.43919
1452.37	3.51539
1452.63	4.61768
1452.9	2.6492
1453.17	1.70678
1453.43	2.8173
1453.7	0.85183
1453.97	0.931179
1454.23	3.05592
1454.5	1.08209
1454.77	-1.91327
1455.03	1.23904
1455.3	4.38951
1455.56	-5.78278
1455.83	0.443462
1456.1	1.55453
1456.36	-0.413628
1456.63	3.76278
1456.9	3.83487
1457.16	4.92695
1457.43	1.92085
1457.7	4.04234
1457.96	3.09015
1458.23	-4.00721
1458.49	3.23885
1458.76	-4.88027
1459.03	-2.75421
1459.29	-1.65259
1459.56	-6.69961
1459.82	-1.50175
1460.09	3.69305
1460.36	4.78779
1460.62	0.759678
1460.89	2.87794
1461.16	0.896877
1461.42	-4.15735
1461.69	4.1014
1461.95	2.11849
1462.22	-0.888855
1462.49	-2.87259
1462.75	1.2832
1463.02	-3.77097
1463.28	-1.66415
1463.55	4.53156
1463.82	0.501671
1464.08	0.570374
1464.35	-0.367519
1464.61	1.77
1464.88	-4.28432
1465.15	-2.14666
1465.41	-3.13458
1465.68	-1.10112
1465.94	-0.0486336
1466.21	-5.0871
1466.48	0.0977821
1466.74	-0.859272
1467.01	-5.91261
1467.27	-2.79
1467.54	-1.69828
1467.8	2.44674
1468.07	1.49049
1468.34	0.535015
1468.6	-0.419468
1468.87	-7.49456
1469.13	0.728989
1469.4	0.790127
1469.67	0.849987
1469.93	-3.17187
1470.2	-5.15543
1470.46	-5.09822
1470.73	0.0559158
1470.99	3.17168
1471.26	-3.89957
1471.53	-1.80396
1471.79	1.30714
1472.06	-3.72757
1472.32	0.405796
1472.59	-1.56951
1472.85	4.60139
1473.12	0.589573
1473.39	-3.42411
1473.65	2.73983
1473.92	-1.27676
1474.18	-3.25584
1474.45	-3.19748
1474.71	-2.11892
1474.98	-2.05432
1475.24	-4.02656
1475.51	-3.96569
1475.78	-2.889
1476.04	-2.83282
1476.31	1.29171
1476.57	-6.79311
1476.84	-1.65014
1477.1	-1.59784
1477.37	-1.54596
1477.63	-3.52493
1477.9	-3.46807
1478.16	-4.42797
1478.43	-5.39146
1478.69	-0.258072
1478.96	0.809521
1479.22	1.8765
1479.49	-2.1389
1479.76	-2.08992
1480.02	-3.05805
1480.29	-1.99467
1480.55	-1.9533
1480.82	-0.894367
1481.08	0.167641
1481.35	-5.86877
1481.61	-0.747673
1481.88	-0.689014
1482.14	5.46056
1482.41	-3.61047
1482.67	2.54231
1482.94	-3.48838
1483.2	-0.389011
1483.47	-3.37665
1483.73	4.80289
1484	-2.25228
1484.26	1.86054
1484.53	1.89544
1484.79	-2.13451
1485.06	-1.11139
1485.32	-3.1385
1485.59	2.96384
1485.85	-0.051548
1486.12	-0.917324
1486.38	-3.89508
1486.65	-0.788738
1486.91	-2.80671
1487.18	1.31622
1487.44	-5.72101
1487.71	-6.69485
1487.97	-3.61495
1488.24	4.53104
1488.5	5.58537
1488.77	-0.450096
1489.03	-4.45969
1489.3	-2.39421
1489.56	-5.38571
1489.83	-1.29381
1490.09	-1.24874
1490.36	-0.189793
1490.62	0.868603
1490.89	1.92188
1491.15	-1.0737
1491.42	0.987473
1491.68	-3.01423
1491.95	2.08533
1492.21	5.16419
1492.48	2.17884
1492.74	3.23402
1493	0.243866
1493.27	2.30948
1493.53	-2.70035
1493.8	-4.68005
1494.06	0.417183
1494.33	0.461945
1494.59	-1.51318
1494.86	-1.46613
1495.12	-3.44628
1495.39	1.64518
1495.65	0.665649
1495.92	4.73455
1496.18	1.73486
1496.45	4.79879
1496.71	-0.213039
1496.97	0.833546
1497.24	-2.158
1497.5	-0.0981674
1497.77	2.97069
1498.03	-1.02742
1498.3	-7.04282
1498.56	-0.946564
1498.82	2.1225
1499.09	2.16423
1499.35	-0.821796
1499.62	-1.78876
1499.88	-2.75551
1500.15	0.315746
1500.41	-1.66275
1500.68	3.4239
1500.94	2.45174
1501.2	2.48882
1501.47	2.52277
1501.73	-2.49318
1502	1.57916
1502.26	-1.41168
1502.52	-0.366753
1502.79	5.72095
1503.05	0.704693
1503.32	-2.29198
1503.58	2.78286
1503.85	0.795059
1504.11	3.85611
1504.37	-1.14573
1504.64	1.91719
1504.9	-2.08088
1505.17	2.99498
1505.43	2.01764
1505.7	-1.98609
1505.96	-1.96173
1506.22	-4.96262
1506.49	3.12916
1506.75	1.14728
1507.02	4.20544
1507.28	-0.792927
1507.54	3.27279
1507.81	0.284962
1508.07	-1.69753
1508.34	-3.68249
1508.6	2.39389
1508.86	7.46529
1509.13	0.445709
1509.39	1.48615
1509.66	-4.52824
1509.92	-0.466026
1510.18	-1.43826
1510.45	-3.42011
1510.71	-1.38023
1510.98	3.68089
1511.24	0.680305
1511.5	-2.32058
1511.77	3.73473
1512.03	2.73705
1512.29	-1.27594
1512.56	3.76096
1512.82	3.7732
1513.08	1.78306
1513.35	-2.21307
1513.61	4.83648
1513.88	2.85405
1514.14	-4.13626
1514.4	-1.08158
1514.67	3.97279
1514.93	0.982857
1515.2	6.02306
1515.46	-0.988567
1515.72	2.04078
1515.99	-0.953983
1516.25	-0.93787
1516.51	0.0843048
1516.78	1.11017
1517.04	2.13623
1517.3	-0.847942
1517.57	3.18775
1517.83	0.206356
1518.09	0.234867
1518.36	3.27596
1518.62	1.29749
1518.88	1.32551
1519.15	1.35284
1519.41	0.377747
1519.67	0.405392
1519.94	2.43836
1520.2	0.455082
1520.47	6.49501
1520.73	2.50344
1520.99	-0.480202
1521.26	5.56671
1521.52	-0.426445
1521.78	4.61514
1522.05	-0.380329
1522.31	5.65887
1522.57	-0.342178
1522.84	3.68824
1523.1	5.71218
1523.36	1.71618
1523.62	1.72657
1523.89	2.73532
1524.15	3.74839
1524.41	-4.25183
1524.68	1.77259
1524.94	3.79015
1525.2	-3.19426
1525.47	-0.167507
1525.73	0.855804
1525.99	2.88498
1526.26	2.91241
1526.52	-0.0634003
1526.78	-2.04066
1527.05	0.988869
1527.31	3.01231
1527.57	0.0192986
1527.84	2.04053
1528.1	6.0646
1528.36	4.076
1528.63	2.08614
1528.89	2.10049
1529.15	2.11542
1529.41	3.13324
1529.68	-2.85922
1529.94	1.16263
1530.2	0.172977
1530.47	1.1903
1530.73	2.21246
1530.99	5.24251
1531.25	7.2716
1531.52	5.29109
1531.78	6.3107
1532.04	3.31856
1532.31	-2.67616
1532.57	6.35264
1532.83	2.36561
1533.09	3.39402
1533.36	0.415878
1533.62	5.45751
1533.88	-3.54889
1534.15	0.481564
1534.41	2.5027
1534.67	4.52167
1534.94	3.53035
1535.2	3.54079
1535.46	0.543316
1535.72	2.556
1535.99	1.54902
1536.25	3.5554
1536.51	0.555603
1536.77	6.56454
1537.04	3.55969
1537.3	0.558403
1537.56	-1.43424
1537.82	2.57185
1538.09	4.58577
1538.35	-0.409878
1538.61	3.59076
1538.87	4.59892
1539.14	-3.38899
1539.4	5.63042
1539.66	-1.33672
1539.92	5.70799
1540.19	4.73891
1540.45	1.76151
1540.71	2.7917
1540.97	-3.20285
1541.24	0.823353
1541.5	1.82188
1541.76	1.83096
1542.02	2.83376
1542.29	1.833
1542.55	-2.17241
1542.81	2.83662
1543.07	6.84257
1543.34	-1.16424
1543.6	0.838642
1543.86	2.83745
1544.12	4.83425
1544.39	-1.15485
1544.65	4.85743
1544.91	0.873661
1545.17	0.893787
1545.43	0.910702
1545.7	-3.07103
1545.96	1.95208
1546.22	2.96711
1546.48	-0.0253105
1546.74	-1.02075
1547.01	-1.01087
1547.27	3.0084
1547.53	-1.98877
1547.79	5.03698
1548.06	2.03033
1548.32	-2.98808
1548.58	8.03388
1548.84	2.03523
1549.1	0.0499954
1549.37	0.0245247
1549.63	3.99408
1549.89	2.99268
1550.15	-1.97973
1550.42	-2.93964
1550.68	1.12596
1550.94	0.168427
1551.2	6.23702
1551.46	6.21526
1551.73	6.2253
1551.99	2.20718
1552.25	2.20118
1552.51	1.21941
1552.77	6.262
1553.03	-1.77261
1553.3	3.24325
1553.56	10.2436
1553.82	1.21303
1554.08	4.22407
1554.34	3.21799
1554.61	-4.80902
1554.87	3.20339
1555.13	6.19998
1555.39	7.20083
1555.65	7.20221
1555.91	11.2129
1556.18	3.20556
1556.44	3.20979
1556.7	2.20605
1556.96	7.2184
1557.22	7.22466
1557.48	2.22162
1557.75	-0.779797
1558.01	1.22496
1558.27	5.22762
1558.53	6.21914
1558.79	2.20771
1559.06	6.20051
1559.32	-2.81272
1559.58	-0.818565
1559.84	4.17582
1560.1	-0.827305
1560.36	-1.82951
1560.63	3.16646
1560.89	2.16603
1561.15	0.167042
1561.41	2.16716
1561.67	-2.82548
1561.93	2.17989
1562.19	0.191914
1562.46	5.20453
1562.72	3.2059
1562.98	2.20515
1563.24	1.20325
1563.5	2.20608
1563.76	0.203419
1564.02	-1.79771
1564.29	6.21687
1564.55	-3.77308
1564.81	1.23523
1565.07	5.23601
1565.33	2.2133
1565.59	0.151493
1565.85	-0.929436
1566.11	3.00668
1566.38	-1.83107
1566.64	0.208805
1566.9	2.18962
1567.16	-0.831802
1567.42	-1.80399
1567.68	0.226109
1567.94	1.21773
1568.2	2.19137
1568.47	3.19488
1568.73	3.19941
1568.99	4.20117
1569.25	4.19645
1569.51	-2.81557
1569.77	4.17137
1570.03	0.173229
1570.29	-1.82406
1570.55	-0.825314
1570.82	4.17076
1571.08	3.16901
1571.34	2.16629
1571.6	1.16191
1571.86	0.1553
1572.12	2.14501
1572.38	3.14074
1572.64	2.13509
1572.9	3.1243
1573.17	5.11338
1573.43	2.1105
1573.69	1.10386
1573.95	-0.899696
1574.21	2.09258
1574.47	-0.897923
1574.73	1.10411
1574.99	5.10466
1575.25	-0.881504
1575.51	1.12212
1575.78	3.12442
1576.04	-3.87248
1576.3	3.11734
1576.56	1.11485
1576.82	2.10666
1577.08	8.08488
1577.34	0.0769691
1577.6	-1.93545
1577.86	3.03845
1578.12	6.01518
1578.38	2.01056
1578.64	5.98792
1578.9	4.98471
1579.17	5.97734
1579.43	2.9823
1579.69	2.97863
1579.95	3.97373
1580.21	1.98099
1580.47	5.96829
1580.73	5.96481
1580.99	0.972881
1581.25	0.964333
1581.51	0.954128
1581.77	0.944851
1582.03	1.92958
1582.29	1.91702
1582.55	1.90957
1582.81	-2.0827
1583.07	2.89064
1583.33	3.87964
1583.59	1.8814
1583.85	2.87148
1584.11	6.84635
1584.38	3.85333
1584.64	-2.12458
1584.9	-0.135429
1585.16	1.85297
1585.42	5.83173
1585.68	9.8083
1585.94	3.8255
1586.2	-2.15939
1586.46	0.814484
1586.72	0.799992
1586.98	0.787876
1587.24	-6.18873
1587.5	5.74302
1587.76	0.758854
1588.02	1.74613
1588.28	2.73541
1588.54	-1.24751
1588.8	-0.254528
1589.06	4.72086
1589.32	2.7289
1589.58	2.7276
1589.84	-2.25306
1590.1	1.72438
1590.36	2.71362
1590.62	0.718906
1590.88	-2.27073
1591.14	0.713669
1591.4	-0.289738
1591.66	3.68702
1591.92	-0.305424
1592.18	0.680065
1592.44	5.64282
1592.7	-0.3479
1592.96	0.632126
1593.22	-1.36977
1593.48	-3.37789
1593.74	2.56677
1594	3.53779
1594.26	0.540707
1594.52	2.51536
1594.78	-0.471375
1595.04	5.48589
1595.3	1.51281
1595.56	2.50433
1595.82	9.45302
1596.08	2.47276
1596.34	5.44437
1596.6	3.45059
1596.86	-1.52251
1597.12	1.45122
1597.38	3.43308
1597.64	3.4291
1597.9	1.438
1598.16	-3.53778
1598.42	3.40537
1598.68	5.37729
1598.94	1.38691
1599.2	2.363
1599.46	-5.59182
1599.72	-0.642845
1599.98	7.28097
1600.24	3.29791
1600.5	-2.6673
1600.76	-0.698154
1601.02	2.2597
1601.28	3.23123
1601.54	1.22892
1601.8	3.19002
1602.06	5.15202
1602.32	-0.804413
1602.58	0.170715
1602.84	2.13417
1603.1	5.08503
1603.36	4.07882
1603.62	-2.85929
1603.88	0.0949211
1604.14	1.07255
1604.4	4.02969
1604.66	3.03345
1604.92	0.0601006
1605.17	-0.936455
1605.43	6.96642
1605.69	0.037941
1605.95	0.032589
1606.21	-2.93861
1606.47	-3.93176
1606.73	-0.968124
1606.99	-0.972828
1607.25	0.0153923
1607.51	-0.921494
1607.77	-1.84296
1608.03	0.161182
1608.29	0.0667076
1608.55	-1.07397
1608.81	3.59568
1609.07	1.96662
1609.32	2.50525
1609.58	4.59316
1609.84	-0.696503
1610.1	1.96712
1610.36	1.67099
1610.62	0.616848
1610.88	2.07705
1611.14	4.97771
1611.4	-3.9866
1611.66	-1.18346
1611.92	3.68782
1612.18	-0.066967
1612.44	-0.798668
1612.69	1.89138
1612.95	-0.300453
1613.21	1.65469
1613.47	2.98385
1613.73	1.30704
1613.99	0.174156
1614.25	-0.888725
1614.51	-1.37374
1614.77	3.05239
1615.03	1.1686
1615.29	-0.253048
1615.54	-0.537876
1615.8	0.943123
1616.06	-0.344986
1616.32	3.18196
1616.58	2.01033
1616.84	-1.51062
1617.1	0.590443
1617.36	1.77153
1617.62	0.818947
1617.88	3.15666
1618.13	0.780754
1618.39	-0.359497
1618.65	1.21468
1618.91	2.21726
1619.17	0.594463
1619.43	-1.08212
1619.69	1.49634
1619.95	2.01466
1620.2	1.9486
1620.46	0.927437
1620.72	1.17715
1620.98	-0.758129
1621.24	1.59726
1621.5	0.0119781
1621.76	-0.575008
1622.02	1.75528
1622.27	1.33036
1622.53	-0.836128
1622.79	-1.30931
1623.05	-0.446121
1623.31	1.60707
1623.57	0.379093
1623.83	-0.221142
1624.09	0.161221
1624.34	1.72237
1624.6	1.45673
1624.86	-0.00318909
1625.12	1.36022
1625.38	-0.931343
1625.64	-0.0379257
1625.9	1.05442
1626.15	-0.197586
1626.41	-0.00939178
1626.67	0.805305
1626.93	0.741989
1627.19	0.982277
1627.45	0.167755
1627.7	0.124859
1627.96	0.656574
1628.22	0.419495
1628.48	0.24794
1628.74	-3.03093
1629	-2.81969
1629.26	-0.364071
1629.51	-0.691723
1629.77	-0.915771
1630.03	-3.1243
1630.29	-0.524174
1630.55	2.6155
1630.81	-1.22261
1631.06	1.08877
1631.32	-2.26455
1631.53	2.37996
1631.79	0.406693
1632.05	0.404716
1632.31	-1.56884
1632.57	-0.593666
1632.84	-0.59267
1633.1	-1.57
1633.36	1.36708
1633.62	1.33974
1633.88	2.31241
1634.14	2.30914
1634.4	1.32104
1634.66	2.30011
1634.93	5.24973
1635.19	1.29792
1635.45	3.25937
1635.71	2.26304
1635.97	0.280468
1636.23	3.2247
1636.49	1.24094
1636.75	1.22804
1637.02	3.18483
1637.28	-0.769283
1637.54	0.200821
1637.8	-1.78006
1638.06	1.16427
1638.32	3.1217
1638.58	-0.828175
1638.84	2.11398
1639.1	3.09055
1639.37	1.11374
1639.63	-0.863495
1639.89	1.09676
1640.15	-0.880623
1640.41	-0.889992
1640.67	2.05593
1640.93	-1.88313
1641.19	5.00605
1641.46	-3.86282
1641.72	0.0655365
1641.98	0.0536346
1642.24	2.0121
1642.5	-0.951099
1642.76	3.96135
1643.02	2.96736
1643.28	0.00520325
1643.54	-3.94073
1643.8	-4.93369
1644.06	2.92953
1644.33	-0.0348167
1644.59	-1.0321
1644.85	-0.0606194
1645.11	-0.0695572
1645.37	-0.0745201
1645.63	0.906528
1645.89	-1.06656
1646.15	2.86265
1646.41	0.883205
1646.67	3.82284
1646.93	-1.1078
1647.19	-1.11761
1647.46	-1.12873
1647.72	-1.14001
1647.98	3.76649
1648.24	-1.15887
1648.5	-2.14842
1648.76	-1.16634
1649.02	1.78441
1649.28	0.811565
1649.54	1.79599
1649.8	0.800171
1650.06	0.788765
1650.32	5.70287
1650.58	-0.199707
1650.85	0.786507
1651.11	-0.19891
1651.37	-4.1402
1651.63	-2.17246
1651.89	-3.16315
1652.15	0.771763
1652.41	2.73575
1652.67	-4.16822
1652.93	1.73409
1653.19	2.70789
1653.45	-0.256824
1653.71	-1.24887
1653.97	0.716465
1654.23	-4.21368
1654.49	2.67985
1654.75	-1.26743
1655.01	-1.27178
1655.27	0.697346
1655.53	-3.24568
1655.8	-0.284241
1656.06	1.69507
1656.32	1.69754
1656.57	3.67087
1656.84	-0.280468
1657.1	-3.2467
1657.36	-0.292759
1657.62	1.67175
1657.88	-4.26034
1658.14	-1.30823
1658.4	-2.30396
1658.66	-0.340546
1658.92	-0.351856
1659.18	-0.363361
1659.44	4.55638
1659.7	-0.386318
1659.96	-1.38375
1660.22	1.55981
1660.48	-1.40069
1660.74	2.54156
1661	0.569267
1661.26	-0.416508
1661.52	-2.38884
1661.78	-5.348
1662.04	0.569492
1662.3	4.51398
1662.56	-4.40261
1662.82	2.56625
1663.08	-3.33281
1663.34	-0.391415
1663.6	-1.38945
1663.86	0.572086
1664.12	0.491108
1664.38	-0.462963
1664.64	-1.44705
1664.9	1.51252
1665.16	-3.41347
1665.42	0.539871
1665.68	-2.46602
1665.94	-4.47491
1666.2	0.544003
1666.46	-3.40884
1666.72	-0.451336
1666.98	1.4683
1667.24	-0.622074
1667.5	-2.49714
1667.76	-0.535664
1668.02	0.440117
1668.28	1.41795
1668.54	-2.53961
1668.8	0.415882
1669.06	0.427391
1669.32	-3.50732
1669.58	-0.545532
1669.84	-5.48838
1670.1	-2.52876
1670.36	-0.561691
1670.62	5.35966
1670.88	-0.552792
1671.14	-0.545616
1671.4	-2.53089
1671.66	2.40371
1671.92	-4.52097
1672.18	-0.570633
1672.44	0.416401
1672.69	-4.52946
1672.95	-3.54559
1673.21	-2.56169
1673.47	2.37757
1673.73	-3.55671
1673.99	-1.5815
1674.25	0.395378
1674.51	1.38502
1674.77	0.396408
1675.03	2.37532
1675.29	-0.589596
1675.55	-0.588234
1675.81	4.35891
1676.07	0.396912
1676.33	-2.57656
1676.59	-1.58975
1676.85	-1.59189
1677.11	-8.52307
1677.37	-0.609501
1677.63	0.374329
1677.89	-2.60159
1678.14	0.358242
1678.4	-0.641857
1678.66	0.335762
1678.92	1.31433
1679.18	-1.66071
1679.44	-1.66853
1679.7	-3.65208
1679.96	-0.693642
1680.22	-1.68911
1680.48	1.26961
1680.74	-3.67849
1681	2.24315
1681.26	-4.67944
1681.52	-3.69636
1681.78	1.23934
1682.03	-1.72797
1682.29	2.22043
1682.55	-1.73408
1682.81	0.239422
1683.07	0.234806
1683.33	-1.74505
1683.59	0.227222
1683.85	1.21206
1684.11	-1.75547
1684.37	-1.7606
1684.63	1.19413
1684.89	5.13834
1685.14	-2.76664
1685.4	-4.74548
1685.66	0.18845
1685.92	-6.72661
1686.18	-1.79174
1686.44	-4.75605
1686.7	3.14452
1686.96	1.17449
1687.22	-2.7757
1687.48	2.16211
1687.73	-2.78245
1687.99	-0.813324
1688.25	-1.80737
1688.51	-1.81297
1688.77	0.155785
1689.03	-3.8009
1689.29	5.07346
1689.55	1.11669
1689.81	1.10793
1690.06	-0.874569
1690.32	-7.78873
1690.58	-3.84763
1690.84	-0.882721
1691.1	1.0931
1691.36	2.08121
1691.62	3.06807
1691.88	0.109837
1692.13	-3.83655
1692.39	2.08344
1692.65	-3.84187
1692.91	-4.83512
1693.17	1.07657
1693.43	-1.8926
1693.69	-0.91745
1693.95	-1.91543
1694.2	1.03283
1694.46	1.02398
1694.72	4.95541
1694.98	-0.96228
1695.24	-0.964207
1695.5	-3.91875
1695.76	-1.948
1696.01	-0.962101
1696.27	-1.94619
1696.53	-2.92809
1696.79	-0.955128
1697.05	-5.88408
1697.31	-1.94643
1697.57	-0.9687
1697.82	-2.94875
1698.08	2.94969
1698.34	-0.997627
1698.6	-0.0203705
1698.86	-0.0272713
1699.12	-1.01715
1699.38	0.947372
1699.63	2.9135
1699.89	2.9149
1700.15	-2.98955
1700.41	1.93045
1700.67	2.90658
1700.92	1.9204
1701.18	0.934315
1701.44	-1.0358
1701.7	-1.03949
1701.96	-0.0622749
1702.22	2.87985
1702.47	-5.97543
1702.73	1.88129
1702.99	-0.0915108
1703.25	-0.0939522
1703.51	-3.04315
1703.77	-0.0978851
1704.02	0.880886
1704.28	-0.10397
1704.54	0.88168
1704.8	-3.04405
1705.06	-3.04311
1705.32	-1.07952
1705.57	3.83109
1705.83	-4.02948
1706.09	-2.06431
1706.35	-1.08718
1706.61	-1.09461
1706.86	-0.120792
1707.12	-6.02007
1707.38	-0.138466
1707.64	2.79776
1707.9	-1.1365
1708.16	3.75611
1708.41	-7.04049
1708.67	-2.14905
1708.93	0.778011
1709.19	-2.17179
1709.44	-0.220802
1709.7	0.753319
1709.96	0.751232
1710.22	2.70905
1710.48	-0.226479
1710.73	-0.224739
1710.99	0.757977
1711.25	0.764194
1711.51	-1.19022
1711.77	-4.12458
1712.02	-2.16243
1712.28	-4.12011
1712.54	2.73291
1712.8	-1.19363
1713.06	-3.16459
1713.31	0.735229
1713.57	1.6993
1713.83	-3.20115
1714.09	-5.16694
1714.34	-6.14861
1714.6	0.686691
1714.86	-1.26919
1715.12	1.66007
1715.38	2.63727
1715.63	1.66828
1715.89	0.700787
1716.15	-0.275295
1716.41	-1.25401
1716.66	2.6497
1716.92	2.64275
1717.18	-5.17788
1717.44	0.668762
1717.69	0.654602
1717.95	-0.337406
1718.21	-0.35162
1718.47	-0.36385
1718.72	-2.32215
1718.98	1.56704
1719.24	-2.33072
1719.5	2.53844
1719.75	-3.30211
1720.01	-3.30231
1720.27	-1.3509
1720.53	-4.26877
1720.78	-4.27015
1721.04	-7.19439
1721.3	-3.30783
1721.56	-3.31297
1721.81	-0.399452
1722.07	1.53935
1722.33	1.53189
1722.59	-2.36402
1722.84	3.46009
1723.1	3.45266
1723.36	0.532181
1723.62	-0.443245
1723.87	3.43895
1724.13	1.49854
1724.39	-2.38639
1724.64	2.46865
1724.9	3.43534
1725.16	1.48611
1725.42	2.44368
1725.67	-0.477131
1725.93	1.45046
1726.19	-1.46394
1726.45	-0.496719
1726.7	1.44655
1726.96	1.44611
1727.22	3.38075
1727.47	-1.47367
1727.73	-6.31473
1727.99	2.41386
1728.24	2.41394
1728.5	0.472919
1728.76	1.42982
1729.02	1.38044
1729.27	3.25583
1729.53	1.30662
1729.79	1.33079
1730.05	1.35308
1730.3	-1.52819
1730.56	1.35033
1730.82	-0.587875
1731.07	-3.48433
1731.33	-0.545467
1731.59	2.35916
1731.84	-0.536648
1732.1	-3.4339
1732.36	2.36543
1732.61	0.432022
1732.87	-1.50136
1733.13	0.428463
1733.39	0.423695
1733.64	-3.44659
1733.9	-1.52616
1734.16	-0.5728
1734.41	-0.580528
1734.67	2.30394
1734.93	-0.596855
1735.18	3.24885
1735.44	2.27628
1735.7	1.3057
1735.95	-0.624363
1736.21	-4.47697
1736.47	-3.51412
1736.72	5.1475
1736.98	2.25848
1737.24	4.18091
1737.49	-1.5937
1737.75	3.21441
1738.01	0.327534
1738.26	-2.56021
1738.52	-0.641113
1738.78	2.23841
1739.03	3.19481
1739.29	5.1104
1739.55	0.299614
1739.8	-1.63074
1740.06	3.15568
1740.32	-0.69455
1740.57	0.254539
1740.83	0.246727
1741.09	-2.63365
1741.34	-0.721222
1741.6	2.14838
1741.86	3.10199
1742.11	3.0992
1742.37	-0.731129
1742.63	0.227951
1742.88	0.228771
1743.14	-0.728493
1743.4	-5.51288
1743.65	1.19022
1743.91	3.10446
1744.16	0.229645
1744.42	5.96745
1744.68	3.09534
1744.93	2.13993
1745.19	4.05672
1745.45	4.06131
1745.7	4.06523
1745.96	3.11062
1746.22	2.1533
1746.47	5.01808
1746.73	-2.63585
1746.98	-1.68625
1747.24	1.17599
1747.5	-2.6511
1747.75	2.11982
1748.01	4.0243
1748.27	5.93293
1748.52	4.02693
1748.78	-1.69583
1749.03	-1.69035
1749.29	-0.729202
1749.55	2.14335
1749.8	-3.57596
1750.06	0.255116
1750.32	5.04437
1750.57	4.10258
1750.83	0.292156
1751.08	3.16698
1751.34	-2.56024
1751.6	1.26905
1751.85	2.22442
1752.11	3.17342
1752.36	1.25512
1752.62	6.98155
1752.88	-3.52735
1753.13	2.19779
1753.39	1.23912
1753.64	0.282108
1753.9	2.18857
1754.15	-1.62917
1754.41	-1.63237
1754.67	4.08578
1754.92	1.22375
1755.18	4.08281
1755.43	0.269932
1755.69	5.9881
1755.95	4.0797
1756.2	8.83908
1756.46	5.97519
1756.71	1.20741
1756.97	0.248009
1757.23	-1.66225
1757.48	-1.66769
1757.74	3.08862
1757.99	-1.66706
1758.25	5.94874
1758.5	-1.64576
1758.76	3.11958
1759.02	2.17352
1759.27	5.03321
1759.53	2.18361
1759.78	3.14178
1760.04	-0.660763
1760.3	6.00203
1760.55	4.1001
1760.81	4.10089
1761.06	4.10088
1761.32	2.19683
1761.57	2.19381
1761.83	3.14244
1762.08	5.04354
1762.34	2.19336
1762.6	0.295414
1762.85	6.96112
1763.11	4.11813
1763.36	4.12366
1763.62	-0.627384
1763.87	-1.5724
1764.13	2.23836
1764.38	4.14906
1764.64	3.21082
1764.89	5.13324
1765.15	2.28922
1765.4	4.2027
1765.66	8.97099
1765.92	1.36258
1766.17	5.1769
1766.43	7.0859
1766.68	0.424961
1766.94	6.13861
1767.19	0.429028
1767.45	1.38509
1767.7	8.04946
1767.96	2.33808
1768.21	6.14321
1768.47	7.09455
1768.73	0.436157
1768.98	8.04855
1769.24	0.428146
1769.49	2.31364
1769.75	3.24869
1770	2.29052
1770.26	10.8425
1770.51	3.25992
1770.77	5.17453
1771.02	5.18007
1771.28	4.23765
1771.53	1.40197
1771.79	2.37084
1772.04	1.4296
1772.3	2.38734
1772.55	2.39845
1772.81	1.45969
1773.06	4.32455
1773.32	8.14054
1773.57	1.48865
1773.83	8.15989
1774.08	4.36128
1774.34	6.2732
1774.59	0.568249
1774.85	4.38307
1775.1	7.25015
1775.36	4.40144
1775.61	4.41338
1775.87	3.48344
1776.12	7.31108
1776.38	4.46152
1776.63	5.42117
1776.89	2.56412
1777.14	1.61088
1777.4	5.4213
1777.65	3.51578
1777.91	7.32457
1778.16	12.0846
1778.42	4.46125
1778.67	3.50657
1778.93	3.503
1779.18	3.49743
1779.44	2.53975
1779.69	-1.26724
1779.95	3.49367
1780.2	4.46126
1780.46	8.27568
1780.71	5.42827
1780.97	5.43661
1781.22	-1.21834
1781.47	5.45104
1781.73	-1.20674
1781.98	3.56168
1782.24	-0.237301
1782.49	4.5352
1782.75	2.64402
1783	0.74892
1783.26	1.7108
1783.51	1.71956
1783.77	-2.08363
1784.02	1.73857
1784.28	0.795189
1784.53	3.66729
1784.79	6.54356
1785.04	-0.123447
1785.29	3.70057
1785.55	3.70518
1785.8	0.845516
1786.06	-2.96957
1786.31	1.80097
1786.57	5.62176
1786.82	4.67588
1787.08	1.82451
1787.33	1.83704
1787.58	0.897251
1787.84	3.78049
1788.09	7.63096
1788.35	1.92596
1788.6	0.0405579
1788.86	1.01736
1789.11	1.98557
1789.37	3.91418
1789.62	2.01743
1789.87	3.94794
1790.13	1.08231
1790.38	3.96715
1790.64	7.81149
1790.89	2.06432
1791.15	-3.68483
1791.4	3.97988
1791.65	1.08674
1791.91	-3.70079
1792.16	3.96181
1792.42	3.00902
1792.67	8.76138
1792.93	-2.72521
1793.18	-0.800846
1793.43	4.95442
1793.69	1.1277
1793.94	-1.74174
1794.2	-2.69119
1794.45	2.10549
1794.7	3.0673
1794.96	2.10765
1795.21	-2.6692
1795.47	1.19673
1795.72	0.260185
1795.97	3.15332
1796.23	-0.676407
1796.48	-3.54653
1796.74	3.1865
1796.99	-1.60466
1797.25	3.21032
1797.5	4.18272
1797.75	0.34866
1798.01	-0.603764
1798.26	1.32705
1798.51	2.29606
1798.77	-2.50536
1799.02	7.11469
1799.28	-0.575748
1799.53	-0.575466
1799.78	1.34569
1800.04	0.381458
1800.29	-0.581905
1800.55	0.377884
1800.8	4.2203
1801.05	1.33901
1801.31	0.380222
1801.56	3.2645
1801.81	3.26842
1802.07	-3.45008
1802.32	3.28022
1802.58	0.405701
1802.83	1.37509
1803.08	3.30709
1803.34	1.39616
1803.59	1.40787
1803.84	3.34129
1804.1	2.38694
1804.35	3.35451
1804.61	2.40136
1804.86	2.41216
1805.11	4.34737
1805.37	1.4725
1805.62	-0.440105
1805.87	-0.427948
1806.13	3.43589
1806.38	0.556351
1806.64	-0.397881
1806.89	5.39238
1807.14	5.39956
1807.4	-0.378139
1807.65	3.48095
1807.9	3.48465
1808.16	-1.33045
1808.41	4.45669
1808.66	3.4973
1808.92	-4.20926
1809.17	0.615036
1809.42	2.54786
1809.68	3.51662
1809.93	2.55764
1810.18	0.634377
1810.44	1.60312
1810.69	1.60687
1810.94	3.53666
1811.2	0.645809
1811.45	-3.20771
1811.7	1.61513
1811.96	0.653847
1812.21	0.657471
1812.46	-3.19401
1812.72	-0.294708
1812.97	-2.21536
1813.22	0.687244
1813.48	4.5543
1813.73	1.66559
1813.98	-0.255882
1814.24	-2.17529
1814.49	2.66346
1814.74	-0.219933
1815	0.760548
1815.25	-2.12805
1815.5	0.779106
1815.76	-6.94627
1816.01	4.65587
1816.26	6.59374
1816.52	0.799385
1816.77	3.70467
1817.02	1.77688
1817.27	2.74427
1817.53	3.70823
1817.78	-1.13741
1818.03	-4.04321
1818.29	3.68755
1818.54	-1.13272
1818.79	3.71043
1819.05	-2.07926
1819.3	2.75362
1819.55	-3.03963
1819.8	2.76624
1820.06	-0.126705
1820.31	5.67977
1820.56	6.65403
1820.82	0.860054
1821.07	4.73514
1821.32	3.77417
1821.58	-0.0875549
1821.83	-1.04705
1822.08	2.83102
1822.33	-2.96896
1822.59	3.81171
1822.84	-1.02309
1823.09	-1.98684
1823.34	-0.0467033
1823.6	-2.94924
1823.85	0.922298
1824.1	2.85678
1824.36	2.85807
1824.61	4.79925
1824.86	2.86893
1825.11	-0.0299797
1825.37	-0.992577
1825.62	-0.0184212
1825.87	6.76522
1826.12	-0.0109291
1826.38	3.86477
1826.63	3.8676
1826.88	2.90225
1827.14	0.96814
1827.39	0.972416
1827.64	2.91519
1827.89	1.95256
1828.15	0.0203552
1828.4	-1.91534
1828.65	2.92958
1828.9	4.86533
1829.16	0.0183296
1829.41	-0.951672
1829.66	3.89145
1829.91	2.92325
1830.17	2.92283
1830.42	0.0151711
1830.67	8.7269
1830.92	0.0109596
1831.18	0.0127411
1831.43	3.89119
1831.68	3.89804
1831.93	4.87351
1832.19	1.00556
1832.44	1.01167
1832.69	1.98714
1832.94	6.84161
1833.2	4.91055
1833.45	3.94353
1833.7	5.88447
1833.95	0.0732956
1834.2	3.9541
1834.46	1.04955
1834.71	2.98022
1834.96	1.99298
1835.21	2.94445
1835.47	4.86404
1835.72	2.9185
1835.97	-1.92695
1836.22	0.975605
1836.48	0.00150299
1836.73	5.96899
1836.98	1.11057
1837.23	3.00279
1837.48	2.01688
1837.74	6.83404
1837.99	1.97015
1838.24	3.86769
1838.49	4.81134
1838.74	0.942894
1839	4.87445
1839.25	1.99866
1839.5	7.82617
1839.75	1.05028
1840	2.99419
1840.26	4.94309
1840.51	4.90757
1840.76	2.94518
1841.01	0.989189
1841.27	2.90536
1841.52	0.955833
1841.77	-1.95686
1842.02	5.75415
1842.27	2.84476
1842.53	-3.9207
1842.78	-2.00141
1843.03	1.86329
1843.28	5.71827
1843.53	0.900177
1843.78	-0.0645332
1844.04	1.86517
1844.29	3.79078
1844.54	-3.92527
1844.79	-2.95645
1845.04	0.903202
1845.3	1.86216
1845.55	-1.02979
1845.8	4.75814
1846.05	7.66959
1846.3	-1.00021
1846.55	1.91054
1846.81	4.83585
1847.06	0.950329
1847.31	1.86406
1847.56	6.61732
1847.81	3.71602
1848.07	-0.133598
1848.32	0.846912
1848.57	-3.95441
1848.82	1.80827
1849.07	-2.05273
1849.32	-2.05181
1849.57	-1.09564
1849.83	-1.10538
1850.08	0.808144
1850.33	0.797539
1850.58	-0.177349
1850.83	0.773434
1851.09	1.72486
1851.34	-1.16532
1851.59	1.70961
1851.84	2.66435
1852.09	2.66021
1852.34	0.737598
1852.59	0.736866
1852.84	1.69677
1853.1	-3.10496
1853.35	0.734482
1853.6	3.61219
1853.85	2.64743
1854.1	-4.0794
1854.35	-1.20969
1854.6	-0.261841
1854.86	-3.14924
1855.11	-0.278217
1855.36	5.4682
1855.61	0.663673
1855.86	-3.1811
1856.11	-0.313885
1856.36	3.51371
1856.61	2.55312
1856.87	4.46795
1857.12	0.635643
1857.37	3.50653
1857.62	-2.24384
1857.87	-4.16372
1858.12	-3.21093
1858.37	-2.25948
1858.63	-0.352737
1858.88	-5.14604
1859.13	0.586182
1859.38	3.4459
1859.63	4.39131
1859.88	-0.396839
1860.13	3.42529
1860.38	-2.31181
1860.63	-5.17924
1860.89	-3.26236
1861.14	0.567661
1861.39	-2.29814
1861.64	0.576984
1861.89	-1.33253
1862.14	0.581913
1862.39	1.5357
1862.64	-0.384651
1862.9	2.47639
1863.15	-2.3156
1863.4	2.45596
1863.65	-1.37767
1863.9	4.34798
1864.15	-3.30532
1864.4	-5.22328
1864.65	2.4115
1864.9	3.35835
1865.15	-2.38005
1865.4	1.42842
1865.66	-2.40117
1865.91	-3.36755
1866.16	-3.38116
1866.41	1.37011
1866.66	-0.552643
1866.91	2.28855
1867.16	-3.44067
1867.41	-3.45525
1867.66	5.09244
1867.91	2.22599
1868.16	0.31609
1868.41	0.310265
1868.67	1.25657
1868.92	-0.646065
1869.17	-1.59693
1869.42	-2.5499
1869.67	-0.652264
1869.92	-3.50822
1870.17	-3.51207
1870.42	3.13776
1870.67	-6.37076
1870.92	0.278908
1871.17	-3.52567
1871.42	3.12439
1871.67	1.21886
1871.92	-5.43889
1872.17	-0.695862
1872.42	1.19769
1872.68	-0.707848
1872.93	1.18297
1873.18	-0.725613
1873.43	-1.68193
1873.68	-0.736454
1873.93	-2.64002
1874.18	2.0986
1874.43	-0.757523
1874.68	-0.767521
1874.93	0.170063
1875.18	-1.73782
1875.43	1.09457
1875.68	1.08201
1875.93	2.96144
1876.18	-5.5836
1876.43	0.0820885
1876.68	0.0688438
1876.93	0.0578156
1877.18	0.0502281
1877.43	-1.86055
1877.68	-1.88311
1877.93	-0.0358086
1878.18	2.82318
1878.44	4.85277
1878.69	-4.6714
1878.93	-1.84904
1879.19	-2.80216
1879.44	1.96021
1879.69	2.92173
1879.94	-1.82829
1880.19	-6.57545
1880.44	1.94149
1880.69	-1.85089
1880.94	1.94141
1881.19	0.983486
1881.44	-3.7548
1881.69	-4.717
1881.94	1.88602
1882.19	-0.971493
1882.44	-0.992668
1882.69	2.76198
1882.94	-0.0982437
1883.19	-1.99799
1883.44	-0.139629
1883.69	-1.81123
1883.94	0.87764
1884.19	-5.81525
1884.44	-0.16148
1884.69	3.62795
1884.94	0.776691
1885.19	-2.98473
1885.44	-1.08484
1885.69	0.803684
1885.94	-2.96958
1886.19	0.819088
1886.44	-0.120193
1886.69	1.77082
1886.94	-0.125015
1887.19	1.74498
1887.44	-0.154186
1887.69	-2.05283
1887.94	-3.00767
1888.19	-1.13313
1888.44	-0.203377
1888.69	-1.16294
1888.94	-3.06247
1889.19	-2.1343
1889.44	1.61811
1889.69	-1.21573
1889.94	-1.22053
1890.19	2.53946
1890.44	-1.22624
1890.69	1.60261
1890.94	-1.2181
1891.19	-0.277531
1891.43	-1.22438
1891.68	5.36132
1891.94	5.35684
1892.18	2.52533
1892.43	-2.18873
1892.68	-2.19371
1892.93	2.50526
1893.18	-1.27152
1893.43	-2.22836
1893.68	-0.369522
1893.93	6.18961
1894.18	-1.33821
1894.43	0.543407
1894.68	1.46626
1894.93	2.39534
1895.18	0.509632
1895.43	1.44619
1895.68	-5.13188
1895.93	1.44476
1896.18	-2.31397
1896.43	-1.37383
1896.68	-2.31241
1896.93	1.45086
1897.18	-2.30851
1897.42	0.513294
1897.68	1.45319
1897.92	-0.430515
1898.17	-2.3161
1898.42	-1.3816
1898.67	1.43185
1898.92	0.481033
1899.17	-4.23183
1899.42	2.33533
1899.67	0.444599
1899.92	0.436657
1900.17	3.24638
1900.42	-1.45958
1900.67	-2.40431
1900.92	0.410629
1901.16	3.22844
1901.41	0.411644
1901.66	0.414783
1901.91	2.29748
1902.16	1.36057
1902.41	3.24581
1902.66	-1.45353
1902.91	-3.3388
1903.16	0.416531
1903.41	-0.532009
1903.66	1.34026
1903.91	0.392368
1904.16	2.26616
1904.41	-3.38128
1904.65	2.25442
1904.9	3.18884
1905.15	2.24223
1905.4	2.23628
1905.65	2.23128
1905.9	-2.47536
1906.15	0.330208
1906.4	2.19238
1906.65	4.06133
1906.9	0.295418
1907.14	1.22638
1907.39	-0.658825
1907.64	2.15413
1907.89	-3.48283
1908.14	1.21288
1908.39	-4.42128
1908.64	-1.60485
1908.89	0.271587
1909.14	2.15002
1909.39	3.09116
1909.63	1.21431
1909.88	0.278664
1910.13	2.16573
1910.38	-1.58994
1910.63	-3.4652
1910.88	-1.5771
1911.13	4.07602
1911.38	-0.631695
1911.62	-2.51683
1911.87	0.305771
1912.12	7.83669
1912.37	-1.59018
1912.62	4.05396
1912.87	-3.48636
1913.12	4.04358
1913.37	0.271584
1913.61	3.09378
1913.86	4.97897
1914.11	1.21656
1914.36	-3.48973
1914.61	5.94129
1914.86	5.94511
1915.11	-2.53992
1915.36	-6.31204
1915.6	2.17953
1915.85	2.17697
1916.1	-1.60321
1916.35	4.05047
1916.6	-1.61745
1916.85	0.259651
1917.1	0.247269
1917.34	0.236179
1917.59	-0.716728
1917.84	0.217632
1918.09	-2.61757
1918.34	-1.67882
1918.59	-0.736095
1918.83	-3.5626
1919.08	-2.61558
1919.33	-1.66699
1919.58	0.226875
1919.83	3.06987
1920.08	-0.700157
1920.33	3.08109
1920.57	2.13303
1920.82	0.234138
1921.07	-3.54791
1921.32	-1.65442
1921.57	-0.705032
1921.81	-3.54123
1922.06	2.13235
1922.31	2.1308
1922.56	2.12593
1922.81	1.17236
1923.06	-0.729298
1923.31	3.9879
1923.55	1.14315
1923.8	1.13526
1924.05	0.181713
1924.3	0.17173
1924.55	2.05019
1924.79	-2.6832
1925.04	1.08949
1925.29	2.03078
1925.54	0.140915
1925.79	0.143475
1926.04	-1.7414
1926.28	1.10002
1926.53	-1.73324
1926.78	-0.782726
1927.03	2.0627
1927.28	0.17218
1927.52	0.172649
1927.77	-0.774284
1928.02	-0.774857
1928.27	-0.77581
1928.52	0.170334
1928.76	3.95747
1929.01	-1.72744
1929.26	-1.72803
1929.51	-0.779774
1929.76	-0.777065
1930	1.12545
1930.25	-0.767273
1930.5	2.08494
1930.75	0.190926
1931	-0.753792
1931.24	0.193329
1931.49	3.03778
1931.74	0.18169
1931.99	2.07063
1932.24	1.11147
1932.48	-1.74571
1932.73	-0.806465
1932.98	1.08069
1933.23	-2.72075
1933.47	-1.78153
1933.72	2.95885
1933.97	-0.830658
1934.22	-1.76804
1934.46	2.04918
1934.71	1.12676
1934.96	0.201538
1935.21	-3.58638
1935.46	1.19328
1935.7	-2.6074
1935.95	1.21392
1936.2	-2.62803
1936.45	-0.730137
1936.69	-2.64328
1936.94	1.15918
1937.19	0.193985
1937.44	0.180313
1937.68	3.02484
1937.93	2.05975
1938.18	-5.5673
1938.43	1.08364
1938.68	0.12674
1938.92	1.08636
1939.17	-5.57927
1939.42	-1.77028
1939.67	3.94542
1939.91	2.04053
1940.16	1.08915
1940.41	-1.77259
1940.66	0.136906
1940.9	0.140869
1941.15	-1.74811
1941.4	-0.785583
1941.64	-1.7447
1941.89	-1.7539
1942.14	0.13686
1942.39	0.110538
1942.63	-2.74205
1942.88	3.01461
1943.13	2.06414
1943.38	2.06093
1943.62	0.131897
1943.87	2.01912
1944.12	2.00133
1944.37	-0.842461
1944.61	-1.7942
1944.86	6.80109
1945.11	1.07628
1945.35	2.99117
1945.6	1.08512
1945.85	-3.68907
1946.1	0.137074
1946.34	1.09528
1946.59	0.13995
1946.84	-4.64254
1947.09	2.04974
1947.33	0.13147
1947.58	-5.61429
1947.83	2.02791
1948.07	-0.846279
1948.32	-1.8074
1948.57	-0.856075
1948.82	-2.77577
1949.06	-2.77873
1949.31	3.91727
1949.56	-1.81863
1949.8	-0.85915
1950.05	3.93031
1950.3	0.107162
1950.54	2.9909
1950.79	-1.78641
1951.04	-1.77878
1951.29	-2.7288
1951.53	-3.67887
1951.78	-1.75176
1952.03	-2.70574
1952.27	2.09703
1952.52	-0.782421
1952.77	3.06059
1953.01	-3.66811
1953.26	-1.74545
1953.51	-1.74115
1953.76	1.12667
1954	1.10829
1954.25	-3.71784
1954.49	-0.863037
1954.74	-0.885933
1954.99	0.0518341
1955.24	2.91634
1955.48	0.0368423
1955.73	-1.87925
1955.98	2.9174
1956.22	3.88876
1956.47	0.0750008
1956.72	-2.79814
1956.96	-0.871498
1957.21	-5.67058
1957.46	2.01583
1957.7	0.0984421
1957.95	-4.70297
1958.2	2.98517
1958.44	-0.859211
1958.69	1.06152
1958.94	2.02058
1959.18	2.01341
1959.43	-3.76366
1959.68	1.99416
1959.92	-0.893753
1960.17	-2.82453
1960.42	-3.79433
1960.66	-0.922073
1960.91	2.90891
1961.16	1.93755
1961.4	-2.87254
1961.65	-3.8413
1961.9	1.90934
1962.14	-0.0126305
1962.39	2.86477
1962.63	-1.93644
1962.88	1.90051
1963.13	1.89832
1963.37	2.85595
1963.62	-0.0262833
1963.87	2.85121
1964.11	0.929325
1964.36	2.85051
1964.61	-0.990028
1964.85	-0.0340958
1965.1	0.919579
1965.35	1.87687
1965.59	-1.96893
1965.84	3.78938
1966.08	-1.01175
1966.33	1.87292
1966.58	1.87789
1966.82	3.80471
1967.07	0.924152
1967.32	-0.0358467
1967.56	2.84311
1967.81	3.80116
1968.05	3.80124
1968.3	4.7607
1968.55	-0.0477943
1968.79	0.909416
1969.04	-5.82639
1969.29	2.8149
1969.53	-4.88516
1969.78	1.82562
1970.02	-1.07064
1970.27	3.71711
1970.52	-2.0535
1970.76	0.817467
1971.01	1.7673
1971.25	-3.99808
1971.5	-1.12714
1971.75	0.784634
1971.99	-4.97623
1972.24	0.778095
1972.48	2.69714
1972.73	0.77737
1972.98	-0.185497
1973.22	-1.15098
1973.47	1.71744
1973.71	4.58268
1973.96	0.737244
1974.21	2.64652
1974.45	5.51579
1974.7	3.59424
1974.94	1.6745
1975.19	0.714451
1975.44	6.46635
1975.68	1.67528
1975.93	-1.19845
1976.17	4.55761
1976.42	3.59992
1976.66	4.55897
1976.91	7.43545
1977.16	1.67746
1977.4	0.714378
1977.65	4.54587
1977.89	3.57951
1978.14	4.52959
1978.39	0.685246
1978.63	1.63622
1978.88	3.54657
1979.12	2.58302
1979.37	5.45583
1979.61	4.49613
1979.86	5.45241
1980.1	2.57595
1980.35	6.40847
1980.6	6.40195
1980.84	5.43362
1981.09	-0.324802
1981.33	2.54398
1981.58	3.49408
1981.82	2.52953
1982.07	0.609001
1982.31	3.47868
1982.56	4.43261
1982.81	5.38154
1983.05	6.32977
1983.3	7.27479
1983.54	0.561405
1983.79	10.1183
1984.03	7.24184
1984.28	4.36694
1984.52	6.27386
1984.77	7.22379
1985.02	6.26178
1985.26	4.34038
1985.51	1.46017
1985.75	0.497734
1986	6.23065
1986.24	4.31974
1986.49	1.45559
1986.73	5.28466
1986.98	7.19883
1987.22	3.37066
1987.47	9.10944
1987.71	8.14385
1987.96	7.17332
1988.21	10.9792
1988.45	9.04942
1988.7	8.07306
1988.94	14.6769
1989.19	2.34647
1989.43	7.08011
1989.68	4.27055
1989.92	6.78471
1990.17	4.38975
1990.41	11.5191
1990.66	6.425
1990.9	7.86745
1991.15	7.8916
1991.39	9.74723
1991.64	7.80094
1991.88	6.55023
1992.13	6.79725
1992.37	6.12536
1992.62	9.62921
1992.86	11.4899
1993.11	3.76582
1993.35	6.464
1993.6	12.7383
1993.84	9.83423
1994.09	9.49715
1994.33	10.5994
1994.58	10.4849
1994.82	12.214
1995.07	10.9848
1995.31	11.976
1995.56	9.38864
1995.8	6.32903
1996.05	10.945
1996.29	9.32737
1996.54	11.3462
1996.78	10.7455
1997.03	6.90664
1997.27	9.81003
1997.52	10.3433
1997.76	9.5339
1998.01	12.434
1998.25	11.1749
1998.5	9.40929
1998.74	13.1372
1998.99	9.67516
1999.23	12.3322
1999.48	11.4573
1999.72	11.9513
1999.97	10.5522
2000.21	9.71412
2000.46	11.9099
2000.7	12.8171
2000.95	12.6034
2001.19	13.3846
2001.43	12.1784
2001.68	14.0601
2001.92	12.4051
2002.17	10.5239
2002.41	12.8182
2002.66	12.7378
2002.9	12.4653
2003.15	8.35972
2003.39	13.3957
2003.64	14.0822
2003.88	11.6619
2004.13	10.0675
2004.37	13.2267
2004.61	13.4345
2004.86	11.1613
2005.1	11.9405
2005.35	13.8864
2005.59	13.1891
2005.84	9.09603
2006.08	10.7072
2006.33	11.4469
2006.57	14.0755
2006.81	13.5842
2007.06	14.0095
2007.3	14.0207
2007.55	10.5934
2007.79	12.6195
2008.04	12.5814
2008.28	9.23824
2008.53	12.8746
2008.77	12.9651
2009.01	10.7478
2009.26	11.8509
2009.5	11.344
2009.75	12.9698
2009.99	13.8795
2010.24	14.1794
2010.48	7.21909
2010.73	9.21244
2010.97	14.411
2011.21	16.2941
2011.46	18.3528
2011.7	12.257
2011.95	12.3323
2012.19	13.2482
2012.43	15.1346
2012.68	14.1903
2012.92	11.3635
2013.17	9.47264
2013.42	11.3405
2013.67	11.3187
2013.91	16.9485
2014.16	12.2311
2014.41	15.0302
2014.66	15.0052
2014.9	14.9832
2015.15	13.1016
2015.4	15.9212
2015.64	8.42123
2015.89	11.2472
2016.14	15.9494
2016.39	15.0071
2016.63	5.63161
2016.88	12.2425
2017.13	11.3118
2017.37	10.3713
2017.62	11.3061
2017.87	13.1763
2018.11	12.2243
2018.36	12.208
2018.61	11.252
2018.86	6.54673
2019.1	11.2223
2019.35	10.2686
2019.6	14.9393
2019.84	8.37416
2020.09	2.75021
2020.34	10.2428
2020.58	13.9908
2020.83	12.1179
2021.08	9.30903
2021.33	7.44109
2021.57	10.2564
2021.82	5.57613
2022.07	15.8797
2022.31	5.5759
2022.56	7.44565
2022.81	8.3765
2023.05	13.0485
2023.3	10.2305
2023.55	9.28809
2023.8	8.3458
2024.04	7.40405
2024.29	9.26746
2024.54	10.1965
2024.78	8.31573
2025.03	8.30363
2025.27	10.1596
2025.52	11.0818
2025.77	7.33837
2026.02	4.53108
2026.26	6.38544
2026.51	11.0564
2026.76	4.54584
2027	7.37574
2027.25	3.67449
2027.5	5.58216
2027.74	11.2219
2027.99	0.927719
2028.23	7.45298
2028.48	9.28497
2028.73	8.23437
2028.98	4.61885
2029.22	2.8951
2029.47	2.82171
2029.72	9.4169
2029.96	7.47218
2030.21	9.2965
2030.45	7.38363
2030.7	8.31786
2030.95	7.3538
2031.19	3.65855
2031.44	4.619
2031.69	9.28208
2031.93	5.5542
2032.18	5.55946
2032.43	3.70881
2032.67	7.46054
2032.92	3.74442
2033.17	5.63031
2033.41	8.4489
2033.66	2.85353
2033.91	8.47959
2034.15	7.55499
2034.4	6.60211
2034.64	1.90756
2034.89	4.67305
2035.14	6.53275
2035.38	3.7553
2035.63	5.64048
2035.87	4.73424
2036.12	3.83325
2036.37	3.85801
2036.61	7.60203
2036.86	-0.828968
2037.11	4.78566
2037.35	7.60523
2037.6	2.9343
2037.84	3.87212
2038.09	3.87305
2038.34	5.74257
2038.58	2.9375
2038.83	6.67442
2039.08	0.131943
2039.32	5.73647
2039.57	6.66835
2039.81	1.06272
2040.06	5.72803
2040.31	4.78795
2040.55	5.7151
2040.8	5.70948
2041.04	6.63737
2041.29	1.03873
2041.54	5.69925
2041.78	2.90433
2042.03	4.77158
2042.27	-0.821117
2042.52	2.90788
2042.77	2.90516
2043.01	3.83918
2043.26	4.77605
2043.5	4.78504
2043.75	5.73342
2044	2.95811
2044.24	-0.75172
2044.49	1.12503
2044.73	3.9276
2044.98	4.85645
2045.23	-0.74976
2045.47	4.81371
2045.72	3.00344
2045.96	3.9539
2046.21	5.88409
2046.45	4.08559
2046.7	0.317822
2046.95	3.09146
2047.19	1.20227
2047.44	1.20963
2047.68	3.071
2047.93	2.11384
2048.17	5.84058
2048.42	0.25499
2048.67	3.9918
2048.91	2.1358
2049.16	-0.651604
2049.4	4.02693
2049.65	2.17564
2049.89	4.99206
2050.14	-2.45517
2050.39	5.03017
2050.63	2.24569
2050.88	0.389511
2051.12	2.26616
2051.37	-4.26931
2051.61	5.07086
2051.86	0.396717
2052.11	-0.530949
2052.35	6.94619
2052.6	6.02525
2052.84	-1.43801
2053.09	4.17691
2053.33	3.25558
2053.58	1.40102
2053.82	-0.452309
2054.07	0.50589
2054.31	1.45452
2054.56	5.20779
2054.8	4.28038
2055.05	5.22168
2055.3	4.29092
2055.54	2.42426
2055.79	-0.383236
2056.03	-0.380356
2056.28	-4.11503
2056.52	2.43299
2056.77	3.37057
2057.01	0.570889
2057.26	2.44699
2057.5	-0.348488
2057.75	0.596043
2058	3.41239
2058.24	5.29552
2058.49	0.63253
2058.73	5.32589
2058.98	4.40652
2059.22	2.55009
2059.47	-1.18116
2059.71	2.57267
2059.96	0.709599
2060.2	5.39867
2060.45	0.72039
2060.69	5.40207
2060.94	-2.0818
2061.18	1.67336
2061.43	4.49435
2061.67	-0.175289
2061.92	2.64245
2062.16	-1.09444
2062.41	-0.149422
2062.65	-1.07587
2062.9	1.74474
2063.14	4.56738
2063.39	-1.97556
2063.63	2.72236
2063.88	-5.69895
2064.12	0.872406
2064.37	2.75767
2064.61	-1.91847
2064.86	-0.969479
2065.1	0.918468
2065.35	2.81032
2065.59	3.76766
2065.84	0.970928
2066.08	-1.82858
2066.33	1.00229
2066.57	3.83211
2066.82	-2.73165
2067.06	-4.59861
2067.31	-0.83028
2067.55	1.99861
2067.8	1.07199
2068.04	0.146221
2068.29	-1.72046
2068.53	0.170792
2068.78	1.12083
2069.02	-1.68597
2069.27	2.08291
2069.51	2.08566
2069.76	1.14355
2070	0.196774
2070.25	-0.740105
2070.49	0.210442
2070.73	-3.52533
2070.98	1.19914
2071.22	0.285297
2071.47	4.99369
2071.71	1.22913
2071.96	-1.54564
2072.2	-3.40745
2072.45	1.30712
2072.69	-0.570473
2072.94	-2.44642
2073.18	1.32527
2073.43	-0.549503
2073.67	3.22292
2073.92	2.29153
2074.16	-2.40659
2074.4	-1.45467
2074.65	-3.32593
2074.89	0.45602
2075.14	-1.41055
2075.38	3.32196
2075.63	-1.36734
2075.87	-4.17164
2076.12	-6.03975
2076.36	-0.362103
2076.6	-1.29669
2076.85	-1.28657
2077.09	1.55028
2077.34	-0.336006
2077.58	-0.335136
2077.83	0.60096
2078.07	1.54863
2078.31	-1.26769
2078.56	-2.19511
2078.8	-0.296719
2079.05	0.658566
2079.29	0.672363
2079.54	-1.19825
2079.78	0.714748
2080.03	-0.213932
2080.27	1.69026
2080.51	0.760021
2080.76	-1.11654
2081	-0.16222
2081.25	0.788109
2081.49	-1.09518
2081.74	-3.92174
2081.98	-3.9132
2082.22	3.65287
2082.47	-0.114681
2082.71	-1.99302
2082.96	-1.98223
2083.2	0.862492
2083.45	1.81589
2083.69	-0.066555
2083.93	4.66574
2084.18	-1.93968
2084.42	2.79455
2084.67	2.80317
2084.91	-0.967056
2085.15	0.933109
2085.4	2.83251
2085.64	-0.938572
2085.89	0.960712
2086.13	-0.91785
2086.37	0.990471
2086.62	-2.77179
2086.86	-1.80953
2087.11	-6.52708
2087.35	-2.73013
2087.59	0.12302
2087.84	-0.810848
2088.08	1.09135
2088.32	-4.57722
2088.57	-3.62077
2088.81	-0.770786
2089.06	1.13326
2089.3	1.14419
2089.54	-3.57471
2089.79	-3.56028
2090.03	-2.59581
2090.28	-3.53084
2090.52	-2.57271
2090.76	-0.66642
2091.01	1.24089
2091.25	0.306568
2091.5	-0.627991
2091.74	0.332649
2091.98	-2.49335
2092.23	-1.52653
2092.47	-1.50684
2092.72	1.35987
2092.96	-5.26363
2093.2	1.40034
2093.45	-2.38071
2093.69	0.486889
2093.93	1.45496
2094.18	1.47171
2094.42	2.43843
2094.66	-1.35302
2094.91	0.557827
2095.15	5.31914
2095.39	3.42446
2095.64	-0.37429
2095.88	0.579346
2096.13	-1.31645
2096.37	-6.06109
2096.61	4.39629
2096.86	-1.29549
2097.1	2.51237
2097.34	-3.1819
2097.59	-5.07775
2097.83	1.57205
2098.07	-0.320126
2098.32	0.636833
2098.56	-1.2539
2098.8	-3.14735
2099.05	-5.98523
2099.29	0.667259
2099.53	-3.12151
2099.78	-3.11341
2100.02	0.691502
2100.27	1.65036
2100.51	-0.237133
2100.75	3.57057
2101	0.736183
2101.24	-0.195362
2101.48	1.71989
2101.73	-3.01498
2101.97	-0.154121
2102.21	1.75502
2102.45	-0.135952
2102.7	0.823555
2102.94	-0.118732
2103.18	-5.81224
2103.43	-2.01072
2103.67	0.843182
2103.92	-1.04684
2104.16	-0.0899696
2104.4	-2.92762
2104.64	0.881794
2104.89	1.84607
2105.13	3.76011
2105.37	-2.87362
2105.62	-7.60853
2105.86	0.00804138
2106.1	-1.87681
2106.35	-5.66573
2106.59	-0.900642
2106.83	1.01177
2107.08	-2.77992
2107.32	-7.52143
2107.56	-1.80637
2107.8	-1.80036
2108.05	2.00512
2108.29	-0.845276
2108.53	-1.79473
2108.78	1.05547
2109.02	5.8054
2109.26	-0.834614
2109.51	-0.823799
2109.75	1.09343
2109.99	3.00976
2110.23	-3.63022
2110.48	3.97914
2110.72	1.13855
2110.96	1.14788
2111.21	2.10736
2111.45	3.06641
2111.69	4.02327
2111.93	0.228413
2112.18	-0.715313
2112.42	1.19141
2112.66	0.250977
2112.91	1.21336
2113.15	3.12595
2113.39	-0.660213
2113.63	1.25749
2113.88	-0.626938
2114.12	5.0885
2114.36	-0.607044
2114.61	-0.60059
2114.85	0.358395
2115.09	-0.58115
2115.33	0.37933
2115.58	-0.563541
2115.82	-1.50733
2116.06	0.399914
2116.31	3.25678
2116.55	4.2087
2116.79	-2.43748
2117.03	0.417946
2117.28	2.32467
2117.52	-1.46593
2117.76	1.39346
2118	-2.39897
2118.25	0.453613
2118.49	1.40651
2118.73	0.457687
2118.97	3.30315
2119.22	2.3556
2119.46	-2.38409
2119.7	-4.27751
2119.94	-2.37847
2120.19	1.41592
2120.43	-0.475136
2120.67	1.42729
2120.91	0.489811
2121.16	3.34752
2121.4	1.46433
2121.64	-4.20716
2121.88	-1.34637
2122.13	0.566544
2122.37	0.582451
2122.61	1.54645
2122.85	0.611645
2123.1	2.5234
2123.34	-4.10844
2123.58	-1.24911
2123.82	3.50802
2124.07	0.66613
2124.31	-5.02397
2124.55	0.674541
2124.79	-2.17165
2125.03	-1.22638
2125.28	-3.12842
2125.52	-1.23748
2125.76	2.54952
2126	-0.293213
2126.25	-4.08043
2126.49	3.49212
2126.73	-3.13016
2126.97	1.60242
2127.21	3.49538
2127.46	-0.285824
2127.7	0.665531
2127.94	-1.2185
2128.18	-4.9934
2128.43	-1.20642
2128.67	-4.03557
2128.91	-2.13633
2129.15	-3.07287
2129.39	-0.229828
2129.64	-1.16903
2129.88	-0.217522
2130.12	-3.04562
2130.36	-3.03855
2130.6	-3.03184
2130.85	2.64366
2131.09	-0.185696
2131.33	0.763477
2131.57	-3.95568
2131.81	-0.174164
2132.06	2.66242
2132.3	2.66737
2132.54	0.783592
2132.78	1.72931
2133.02	-4.8746
2133.27	-2.03816
2133.51	-2.97393
2133.75	0.810085
2133.99	-0.124096
2134.23	2.71548
2134.48	-2.93722
2134.72	-4.8157
2134.96	-1.97704
2135.2	3.69254
2135.44	-6.68112
2135.68	-0.0687675
2135.93	-1.00748
2136.17	-0.061409
2136.41	-1.00631
2136.65	-1.00764
2136.89	0.881119
2137.14	-0.052227
2137.38	0.899773
2137.62	-0.0344582
2137.86	-0.0230942
2138.1	-0.00831223
2138.34	-1.88904
2138.59	1.88125
2138.83	-2.83097
2139.07	1.89585
2139.31	-3.74381
2139.55	0.0436096
2139.79	0.0353622
2140.03	0.973301
2140.28	-1.85161
2140.52	0.977856
2140.76	2.86531
2141	-1.8405
2141.24	0.99021
2141.49	0.995123
2141.73	-2.76407
2141.97	-0.879299
2142.21	1.94536
2142.45	1.94984
2142.69	2.89855
2142.93	-0.853231
2143.18	1.04226
2143.42	2.01892
2143.66	0.128687
2143.9	1.93531
2144.14	0.0630398
2144.38	0.076252
2144.62	-0.845516
2144.87	-2.70871
2145.11	-0.814383
2145.35	-0.82506
2145.59	2.94558
2145.83	0.133368
2146.07	-2.68205
2146.31	-2.67745
2146.55	2.02737
2146.8	-1.72839
2147.04	1.09591
2147.28	-0.780149
2147.52	0.162083
2147.76	2.04376
2148	1.10695
2148.24	-1.70774
2148.48	-4.52223
2148.73	1.11616
2148.97	-2.63746
2149.21	-1.6964
2149.45	1.12016
2149.69	-0.757915
2149.93	2.988
2150.17	2.98659
2150.42	1.1085
2150.66	3.92055
2150.9	2.04881
2151.14	0.180023
2151.38	3.93861
2151.62	-2.61166
2151.86	3.96102
2152.1	0.221849
2152.34	3.98169
2152.58	-3.51076
2152.83	-1.63302
2153.07	3.05751
2153.31	0.244736
2153.55	3.99511
2153.79	-6.31208
2154.03	0.252195
2154.27	2.127
2154.51	1.18796
2154.75	-1.62673
2154.99	-2.56955
2155.24	1.16777
2155.48	3.96484
2155.72	0.219416
2155.96	1.15049
2156.2	0.213495
2156.44	3.01614
2156.68	-2.58694
2156.92	4.89079
2157.16	4.89556
2157.4	-0.703451
2157.64	-3.49822
2157.89	-1.62003
2158.13	1.1946
2158.37	0.270748
2158.61	0.277632
2158.85	0.282877
2159.09	-0.647766
2159.33	0.289537
2159.57	1.2254
2159.81	1.22541
2160.05	1.22415
2160.29	3.08919
2160.53	1.21844
2160.77	-2.51743
2161.01	-0.651329
2161.25	4.01629
2161.5	-3.44551
2161.74	1.22216
2161.98	-0.641823
2162.22	4.02667
2162.46	2.16569
2162.7	1.23786
2162.94	2.17511
2163.18	2.17706
2163.42	-0.620661
2163.66	0.313372
2163.9	1.2474
2164.14	2.181
2164.38	0.317129
2164.62	-0.617094
2164.86	0.311317
2165.11	0.310802
2165.35	2.1801
2165.59	4.05165
2165.83	3.12477
2166.07	3.12978
2166.31	1.27082
2166.55	-2.45564
2166.79	3.13558
2167.03	1.27171
2167.27	5.92618
2167.51	-1.52466
2167.75	1.26561
2167.99	3.12148
2168.23	-0.612072
2168.47	-0.621572
2168.71	1.23708
2168.95	0.310709
2169.19	1.24626
2169.43	4.04411
2169.67	1.26516
2169.91	3.13884
2170.15	-1.49857
2170.39	3.1718
2170.63	-2.40394
2170.87	-0.535028
2171.11	-0.533413
2171.35	-2.39784
2171.59	5.05097
2171.83	-0.543556
2172.07	-2.42131
2172.31	-4.28757
2172.56	2.2167
2172.79	2.21438
2173.04	0.355061
2173.28	-0.571522
2173.51	1.28952
2173.76	-2.42386
2174	-1.48937
2174.24	-0.553013
2174.48	-3.33499
2174.72	0.387051
2174.96	-1.46819
2175.2	-1.46531
2175.44	0.396032
2175.68	-2.39099
2175.92	0.397993
2176.16	2.25837
2176.4	4.11794
2176.64	-0.527681
2176.88	-1.45858
2177.12	1.3291
2177.36	2.2609
2177.6	-0.522297
2177.84	-0.519043
2178.08	5.0567
2178.32	0.415783
2178.55	-2.37132
2178.8	-1.44781
2179.03	1.33416
2179.28	4.12113
2179.52	0.411224
2179.75	5.98512
2180	4.13091
2180.23	0.419098
2180.47	5.0637
2180.71	-0.505934
2180.95	-2.36249
2181.19	-2.36214
2181.43	1.35258
2181.67	5.99409
2181.91	-5.14629
2182.15	0.421215
2182.39	2.27759
2182.63	2.27524
2182.87	2.274
2183.11	1.34507
2183.35	-5.15217
2183.59	-2.37418
2183.83	-1.45367
2184.07	1.32242
2184.31	1.31902
2184.55	1.31599
2184.79	-0.536936
2185.03	2.24541
2185.27	1.3236
2185.51	-1.45264
2185.75	3.18524
2185.99	3.19096
2186.23	-2.36443
2186.47	1.35122
2186.7	2.28572
2186.95	-2.34197
2187.18	-0.476097
2187.42	0.46245
2187.66	-4.16994
2187.9	0.480808
2188.14	0.483698
2188.38	1.41016
2188.62	0.477089
2188.86	1.40038
2189.1	0.466219
2189.34	1.38756
2189.58	-0.475784
2189.82	1.36984
2190.06	3.216
2190.3	1.35827
2190.54	-0.496244
2190.78	-3.27582
2191.01	1.36264
2191.25	2.29316
2191.49	0.439476
2191.73	1.36913
2191.97	3.227
2192.21	5.08542
2192.45	2.30669
2192.69	-0.472795
2192.93	4.16861
2193.17	-0.464125
2193.41	1.39747
2193.65	-0.453146
2193.89	1.41066
2194.13	-2.29021
2194.36	-0.417759
2194.6	1.45138
2194.84	0.527603
2195.08	-3.19255
2195.32	5.16997
2195.56	-1.33969
2195.8	3.3021
2196.04	-0.421694
2196.28	0.498396
2196.52	4.20134
2196.76	4.18991
2197	6.03698
2197.23	-0.464926
2197.47	-0.470308
2197.71	4.16241
2197.95	4.16228
2198.19	3.23541
2198.43	2.31104
2198.67	1.3907
2198.91	0.470308
2199.15	-0.449213
2199.38	2.34698
2199.62	2.35615
2199.86	-1.3507
2200.1	1.44734
2200.34	8.90304
2200.58	0.548349
2200.82	-0.368729
2201.06	2.43725
2201.3	3.37808
2201.54	4.31768
2201.77	-0.355619
2202.01	3.3346
2202.25	-3.23934
2202.49	3.21096
2202.73	1.37598
2202.97	5.14904
2203.21	2.38558
2203.45	2.37505
2203.68	0.507368
2203.92	4.25601
2204.16	-0.29986
2204.4	0.593712
2204.64	-1.27486
2204.88	1.52658
2205.12	1.50302
2205.36	5.19712
2205.59	7.02777
2205.83	5.14544
2206.07	2.34941
2206.31	1.41891
2206.55	3.28471
2206.79	1.42434
2207.03	-1.37821
2207.26	3.27047
2207.5	1.41423
2207.74	1.41854
2207.98	2.35376
2208.22	3.28962
2208.46	-0.42734
2208.7	0.507883
2208.93	7.02875
2209.17	2.37668
2209.41	0.515779
2209.65	2.37841
2209.89	0.514029
2210.13	-2.28279
2210.36	4.23553
2210.6	2.37509
2210.84	3.30939
2211.08	4.24459
2211.32	-0.411404
2211.56	3.3193
2211.8	1.45845
2212.03	1.46325
2212.27	2.4006
2212.51	1.47056
2212.75	1.47068
2212.99	1.46612
2213.23	-2.27039
2213.46	4.25276
2213.7	-0.417675
2213.94	2.37138
2214.18	1.43837
2214.42	-1.35542
2214.66	1.45309
2214.89	-0.403553
2215.13	6.13113
2215.37	-1.33637
2215.61	-6.00503
2215.85	-0.404842
2216.08	2.39418
2216.32	-3.21041
2216.56	-1.34628
2216.8	-0.416275
2217.04	2.38028
2217.28	2.37609
2217.51	1.43957
2217.75	-1.36294
2217.99	-0.430868
2218.23	-1.3676
2218.47	0.49634
2218.7	-5.10752
2218.94	-3.24041
2219.18	-1.37175
2219.42	-0.435478
2219.66	-3.23576
2219.9	3.30495
2220.13	-1.3665
2220.37	1.43712
2220.61	1.43312
2220.85	-2.30983
2221.09	0.489456
2221.32	-3.25486
2221.56	-0.462099
2221.8	2.32826
2222.04	-3.28515
2222.27	-0.493057
2222.51	1.36661
2222.75	-0.504692
2222.99	-0.505955
2223.23	0.428638
2223.46	2.29744
2223.7	-2.37034
2223.94	-6.10394
2224.18	1.37575
2224.42	-0.487391
2224.65	4.19313
2224.89	1.39235
2225.13	1.39587
2225.37	-1.40797
2225.6	-6.08419
2225.84	-1.39955
2226.08	-0.460201
2226.32	1.4158
2226.56	-4.20218
2226.79	-0.453726
2227.03	-3.2627
2227.27	-1.38631
2227.51	-3.26056
2227.74	2.3651
2227.98	-3.26318
2228.22	-0.454561
2228.46	2.3522
2228.69	3.28341
2228.93	1.40192
2229.17	-1.41638
2229.41	1.39038
2229.64	-0.488644
2229.88	0.450083
2230.12	2.3301
2230.36	1.39602
2230.6	1.39777
2230.83	-3.29256
2231.07	-3.29103
2231.31	1.40524
2231.55	-6.10433
2231.78	0.473082
2232.02	-0.464554
2232.26	-1.40238
2232.5	2.35901
2232.73	0.481115
2232.97	-0.457623
2233.21	-0.456074
2233.45	-0.454826
2233.68	-1.39438
2233.92	-0.452068
2234.16	-3.2756
2234.39	1.42965
2234.63	-0.459028
2234.87	-0.465942
2235.11	1.40805
2235.34	-3.30676
2235.58	-0.499416
2235.82	0.428566
2236.06	-0.515585
2236.29	-2.3996
2236.53	1.35933
2236.77	-0.524342
2237	2.29407
2237.24	-0.530523
2237.48	3.23563
2237.72	3.23842
2237.95	1.3643
2238.19	2.31524
2238.43	1.38134
2238.67	-1.4416
2238.9	-2.38109
2239.14	-0.490866
2239.38	1.40248
2239.61	-4.26058
2239.85	3.27932
2240.09	1.3835
2240.33	-0.516298
2240.56	-0.528496
2240.8	-0.536821
2241.04	1.35775
2241.27	-1.46476
2241.51	-6.18506
2241.75	1.36036
2241.99	-0.529104
2242.22	-4.30672
2242.46	-5.25294
2242.7	0.40863
2242.93	-1.48023
2243.17	2.29189
2243.41	0.397734
2243.64	3.22046
2243.88	-1.5084
2244.12	-0.571815
2244.36	1.30984
2244.59	-0.581339
2244.83	-0.58143
2245.07	4.14366
2245.3	1.31973
2245.54	-1.50783
2245.78	1.3298
2246.01	-2.4499
2246.25	-3.39414
2246.49	0.3897
2246.72	-5.28516
2246.96	1.33463
2247.2	-1.50368
2247.43	-0.557697
2247.67	5.11913
2247.91	-0.562853
2248.14	-0.568102
2248.38	-1.52102
2248.62	-0.581387
2248.85	-1.53449
2249.09	1.29776
2249.33	-3.44005
2249.56	1.28484
2249.8	3.17838
2250.04	1.28484
2250.27	-1.55978
2250.51	-1.56845
2250.75	-1.57917
2250.98	0.301765
2251.22	-0.656521
2251.46	1.22411
2251.69	0.269089
2251.93	-0.682989
2252.17	1.20424
2252.4	-1.63373
2252.64	-1.63395
2252.88	1.20503
2253.11	2.15694
2253.35	3.11715
2253.59	1.23139
2253.82	0.288914
2254.06	-7.2896
2254.3	0.292728
2254.53	-0.653936
2254.77	0.293583
2255.01	4.08214
2255.24	-2.56287
2255.48	2.17452
2255.72	5.01443
2255.95	-3.52288
2256.19	-2.57822
2256.42	1.21564
2256.66	3.11431
2256.9	-2.5771
2257.13	2.16758
2257.37	1.21945
2257.61	4.06789
2257.84	-2.57729
2258.08	-1.62929
2258.32	3.1157
2258.55	1.21323
2258.79	-3.53794
2259.02	0.259336
2259.26	-2.59071
2259.5	-0.690807
2259.73	-0.692472
2259.97	-0.694574
2260.2	0.254793
2260.44	-0.69701
2260.68	0.252048
2260.91	4.05333
2261.15	-2.60188
2261.39	2.15876
2261.62	0.258572
2261.86	-0.695944
2262.1	-1.65017
2262.33	-1.65221
2262.57	2.15257
2262.8	-0.70265
2263.04	1.20347
2263.28	0.254078
2263.51	-0.694426
2263.75	0.263483
2263.98	-1.63606
2264.22	0.278519
2264.46	-2.5755
2264.69	-0.661266
2264.93	-0.656599
2265.16	0.301304
2265.4	-0.651419
2265.64	-0.650249
2265.87	0.301647
2266.11	-3.52246
2266.34	-4.48424
2266.58	0.280277
2266.81	-2.59591
2267.05	-1.653
2267.29	-2.61829
2267.52	0.235081
2267.76	-1.68203
2267.99	4.03229
2268.23	-1.70203
2268.47	-2.66496
2268.7	-7.43835
2268.94	-3.62771
2269.17	4.0013
2269.41	0.189377
2269.65	-3.62272
2269.88	-1.70996
2270.12	0.204449
2270.35	1.16664
2270.59	-2.64834
2270.82	0.219906
2271.06	-0.735682
2271.3	-0.732866
2271.53	0.224857
2271.77	4.04988
2272	-1.68702
2272.24	2.14096
2272.47	-1.68597
2272.71	-1.68917
2272.95	0.221817
2273.18	-0.737057
2273.42	-3.60958
2273.65	-0.741156
2273.89	-1.70018
2274.12	-3.61633
2274.36	-0.747375
2274.6	-0.749653
2274.83	-3.62325
2275.07	1.16088
2275.3	0.202301
2275.54	1.15789
2275.77	-1.71591
2276.01	0.194405
2276.24	-0.761938
2276.48	-0.757967
2276.72	-0.753681
2276.95	1.16634
2277.18	1.16964
2277.42	-0.743731
2277.66	-0.736792
2277.89	0.231018
2278.13	4.07954
2278.36	-3.58995
2278.6	-0.70789
2278.83	1.21207
2279.07	-0.711708
2279.3	-1.67659
2279.54	-1.68178
2279.78	-2.65072
2280.01	3.09151
2280.24	-1.71946
2280.48	0.187645
2280.72	-5.57719
2280.95	-7.50317
2281.19	-1.75757
2281.42	0.153652
2281.66	-0.812012
2281.89	0.140465
2282.13	-1.77597
2282.36	-1.77671
2282.6	1.10106
2282.83	-0.813105
2283.07	-2.72696
2283.3	0.15527
2283.54	-0.797964
2283.77	-3.66855
2284.01	2.10534
2284.24	-2.68767
2284.48	-2.67645
2284.71	-4.59456
2284.95	0.21513
2285.19	2.14418
2285.42	-1.69974
2285.65	0.224781
2285.89	0.223209
2286.12	0.213764
2286.36	-4.61015
2286.59	-0.766264
2286.83	3.08121
2287.06	-3.64968
2287.3	4.06143
2287.54	-0.741095
2287.77	2.1505
2288	3.11521
2288.24	5.04958
2288.47	5.0447
2288.71	4.07369
2288.94	3.10302
2289.18	8.87205
2289.41	5.96952
2289.65	4.99087
2289.88	1.12819
2290.12	0.150749
2290.35	1.10557
2290.59	2.06158
2290.82	3.02112
2291.06	0.135887
2291.29	3.02337
2291.53	3.03092
2291.76	-3.69385
2292	2.0849
2292.23	2.08918
2292.47	0.168072
2292.7	-1.75314
2292.94	-1.74755
2293.17	5.00102
2293.41	0.188431
2293.64	2.11908
2293.88	-2.69755
2294.11	-0.769644
2294.34	1.15406
2294.58	-0.778776
2294.81	-4.63923
2295.05	0.170837
2295.28	-2.72485
2295.52	-0.804131
2295.75	0.152966
2295.99	0.147137
2296.22	0.141979
2296.46	-0.829386
2296.69	0.11858
2296.93	-1.80857
2297.16	-0.845041
2297.39	-0.841698
2297.63	1.088
2297.86	-3.71902
2298.1	-0.823034
2298.33	0.150043
2298.57	-4.66151
2298.8	3.05098
2299.04	-2.72622
2299.27	0.172943
2299.51	0.179123
2299.74	1.1486
2299.97	-1.74285
2300.21	-1.74412
2300.44	0.184544
2300.68	-2.71092
2300.91	-2.70819
2301.15	0.190983
2301.38	3.08969
2301.61	2.12792
2301.85	1.16445
2302.08	5.99099
2302.32	-0.767521
2302.55	-0.770927
2302.79	-1.73872
2303.02	0.191803
2303.25	4.05108
2303.49	-1.74185
2303.72	-1.74278
2303.96	2.11775
2304.19	3.08598
2304.43	-3.66581
2304.66	-0.765011
2304.89	1.16954
2305.13	0.208332
2305.36	-2.68366
2305.6	2.14997
2305.83	-1.7131
2306.07	-2.67701
2306.3	-3.63976
2306.53	0.229626
2306.77	4.09714
2307	-0.735064
2307.24	3.13069
2307.47	0.229874
2307.7	-0.739639
2307.94	-1.70999
2308.17	1.18652
2308.41	3.11581
2308.64	4.079
2308.87	-1.7177
2309.11	3.11463
2309.34	-0.745186
2309.58	1.19331
2309.81	1.20188
2310.04	3.14679
2310.28	-0.714451
2310.51	1.22357
2310.75	-0.710079
2310.98	2.19138
2311.21	0.253376
2311.45	-2.65519
2311.68	-1.70544
2311.92	-0.759073
2312.15	2.12668
2312.38	5.0142
2312.62	-0.782022
2312.85	3.07275
2313.08	3.06846
2313.32	-3.68586
2313.55	2.10785
2313.79	1.15348
2314.02	4.06403
2314.25	0.211342
2314.49	-4.60998
2314.72	1.19841
2314.95	1.2115
2315.19	3.15792
2315.42	-0.705322
2315.66	-0.713259
2315.89	-0.720722
2316.12	0.240124
2316.36	-0.734715
2316.59	5.04444
2316.82	4.06853
2317.06	-1.72967
2317.29	4.06357
2317.52	3.10041
2317.76	1.17158
2317.99	3.113
2318.23	1.18763
2318.46	3.10835
2318.69	5.03428
2318.93	1.16772
2319.16	4.05908
2319.39	5.98394
2319.63	5.97879
2319.86	5.97511
2320.09	3.07811
2320.33	5.97355
2320.56	7.90508
2320.79	4.04552
2321.03	7.9098
2321.26	5.986
2321.5	-1.73004
2321.73	11.7941
2321.96	6.97537
2322.2	14.7156
2322.43	10.8655
2322.66	15.7105
2322.9	10.8822
2323.13	14.7475
2323.36	13.7835
2323.6	15.7211
2323.83	20.5589
2324.06	23.464
2324.3	25.4002
2324.53	27.3321
2324.76	36.999
2325	33.1158
2325.23	43.7261
2325.46	47.5634
2325.7	63.964
2325.93	66.8424
2326.16	93.8557
2326.4	130.51
2326.63	186.448
2326.86	269.377
2327.09	433.299
2327.33	613.545
2327.56	767.674
2327.79	799.372
2328.03	670.07
2328.26	492.654
2328.49	337.502
2328.73	207.384
2328.96	146.666
2329.19	100.373
2329.43	75.2958
2329.66	57.9284
2329.89	50.2144
2330.13	43.4688
2330.36	32.8829
2330.59	24.2093
2330.82	25.1675
2331.06	19.3836
2331.29	15.5294
2331.52	11.68
2331.76	5.90678
2331.99	12.6564
2332.22	5.92142
2332.46	9.76375
2332.69	4.93884
2332.92	8.78488
2333.16	7.81555
2333.39	2.03269
2333.62	6.84084
2333.85	0.0976601
2334.09	3.94355
2334.32	2.97516
2334.55	0.0815811
2334.79	5.84361
2335.02	1.98953
2335.25	5.83155
2335.48	-2.82607
2335.72	2.94062
2335.95	0.0556259
2336.18	3.90339
2336.41	3.90072
2336.65	3.89529
2336.88	3.89131
2337.11	3.888
2337.34	-0.922529
2337.58	4.84262
2337.81	3.87775
2338.04	4.834
2338.28	0.0230827
2338.51	0.980698
2338.74	1.93802
2338.97	0.0124168
2339.21	-0.949921
2339.44	0.0096283
2339.67	3.85182
2339.91	1.92572
2340.14	3.84246
2340.37	4.79619
2340.6	2.8654
2340.84	-0.0256348
2341.07	2.84546
2341.3	4.75283
2341.53	-3.90129
2341.77	3.76068
2342	0.869053
2342.23	2.77762
2342.46	-3.94426
2342.7	1.8003
2342.93	4.66864
2343.16	1.78671
2343.39	2.74062
2343.63	0.81966
2343.86	-0.14468
2344.09	2.7253
2344.32	-4.94705
2344.56	2.71926
2344.79	0.798534
2345.02	0.792831
2345.25	0.785774
2345.49	0.777237
2345.72	1.72506
2345.95	2.66892
2346.18	3.61495
2346.41	-3.10138
2346.65	-5.98214
2346.88	1.67146
2347.11	-0.251259
2347.34	-1.21757
2347.58	-1.22619
2347.81	-0.27573
2348.04	-2.19621
2348.27	-2.20087
2348.5	3.54171
2348.74	-0.2929
2348.97	3.53072
2349.2	-1.26777
2349.43	-0.3228
2349.67	-2.25805
2349.9	2.50447
2350.13	1.52297
2350.36	-3.28319
2350.59	-1.40295
2350.83	0.45549
2351.06	-0.57478
2351.29	2.32697
2351.52	1.48222
2351.75	2.46624
2351.99	-0.481209
2352.22	-0.526379
2352.45	-1.48732
2352.68	4.23463
2352.91	4.20228
2353.15	0.346077
2353.38	-0.639833
2353.61	1.26354
2353.84	3.15533
2354.07	1.23296
2354.31	4.08
2354.54	-0.694523
2354.77	-2.60312
2355	0.251396
2355.23	0.238819
2355.47	1.17767
2355.7	3.06818
2355.93	4.00518
2356.16	1.13078
2356.39	-1.74485
2356.63	-3.67192
2356.86	1.05931
2357.09	-2.77199
2357.32	1.96366
2357.55	0.993065
2357.79	-6.63256
2358.02	0.954353
2358.25	-0.965857
2358.48	1.86724
2358.71	-1.00127
2358.94	-5.77392
2359.18	-2.94193
2359.41	1.79009
2359.64	4.62201
2359.87	-1.09744
2360.1	0.779919
2360.33	2.65495
2360.57	-2.11632
2360.8	-1.19156
2361.03	1.62995
2361.26	1.60418
2361.49	-0.318924
2361.72	-0.345184
2361.96	0.575874
2362.19	-3.242
2362.42	-0.42749
2362.65	1.43878
2362.88	-1.42934
2363.11	-0.508995
2363.34	0.411587
2363.58	-0.560486
2363.81	2.25377
2364.04	0.336456
2364.27	1.25728
2364.5	-2.55307
2364.73	3.09512
2364.97	-5.44336
