#Acq. time (s)=	30
#Accumulations=	2
#Range=	Off
#Autofocus=	Off
#Macrospot=	Off
#AutoExposure=	Off
#Spike filter=	Multiple accum.
#Delay time (s)=	2
#Binning=	1
#Readout mode=	Signal
#DeNoise=	Off
#ICS correction=	On
#Dark correction=	Off
#Inst. Process=	Off
#Detector Gain=	Best Dynamic
#Detector ADC=	50 kHz HS
#Detector temperature (°C)=	-60.09
#Instrument=	LabRAM HR Evol
#Detector=	SIN-EM FIVIS
#Objective=	x100_VIS_LWD
#Grating=	1800 (450-850nm)
#ND Filter=	100%
#Laser=	532nm_Edge
#Spectro (cm-¹)=	3360
#Hole=	30.0125
#Temperature=	0
#Range=	Visible
#StageXY=	75x50mm Scan+
#StageZ=	Z motor
#X (µm)=	0
#Y (µm)=	0
#Z (µm)=	-16.5
#Full time(mm:ss)=	1:04
#Project=	21_08_11
#Sample=	BU20
#Site=	
#Title=	BU20-J-FF1-FI02-S_1800 (450-850nm)_532nm_Edge_100%_x100_VIS_LWD_H30um_30sX2
#Remark=	
#Date=	11.08.2021 17:24
#Acquired=	11.08.2021 17:24:45
#Data Range:Extract=	16.12.2021 15:36:30
#Base:Fit=	16.12.2021 15:36:40
#Base:Fit=	16.12.2021 15:56:20
#Base:Fit=	16.12.2021 15:56:22
#Base:Sub=	16.12.2021 15:56:23
3515.51	358.112
3515.32	368.575
3515.13	383.801
3514.94	372.448
3514.74	373.467
3514.55	368.766
3514.36	384.938
3514.17	396.307
3513.98	400.043
3513.79	414.26
3513.6	400.93
3513.4	403.787
3513.21	431.364
3513.02	426.573
3512.83	418.933
3512.64	439.85
3512.45	436.048
3512.25	435.11
3512.06	446.534
3511.87	422.752
3511.68	428.452
3511.49	441.177
3511.3	425.91
3511.1	445.763
3510.91	446.475
3510.72	427.133
3510.53	435.584
3510.34	449.785
3510.15	438.433
3509.95	438.503
3509.76	425.241
3509.57	417.425
3509.38	412.209
3509.19	411.444
3509	396.094
3508.8	392.678
3508.61	409.405
3508.42	402.378
3508.23	368.031
3508.04	379.477
3507.84	384.362
3507.65	340.09
3507.46	364.901
3507.27	360.713
3507.08	353.027
3506.88	332.462
3506.69	331.606
3506.5	314.129
3506.31	313.701
3506.12	316.174
3505.93	307.365
3505.73	299.996
3505.54	298.646
3505.35	268.934
3505.16	275.322
3504.97	271.957
3504.77	292.475
3504.58	279.252
3504.39	254.597
3504.2	230.748
3504.01	231.62
3503.81	241.094
3503.62	247.808
3503.43	228.858
3503.24	210.792
3503.05	226.014
3502.85	208.965
3502.66	204.319
3502.47	211.088
3502.28	188.318
3502.09	193.15
3501.89	169.382
3501.7	191.338
3501.51	184.698
3501.32	185.69
3501.12	161.925
3500.93	166.743
3500.74	156.282
3500.55	146.74
3500.36	151.457
3500.16	134.173
3499.97	153.183
3499.78	133.152
3499.59	119.791
3499.4	122.631
3499.2	131.198
3499.01	122.661
3498.82	133.189
3498.63	114.176
3498.44	107.541
3498.24	127.573
3498.05	122.83
3497.86	106.65
3497.67	98.0884
3497.47	99.0517
3497.28	95.2453
3497.09	91.4304
3496.9	95.2209
3496.7	89.4751
3496.51	93.2722
3496.32	82.8205
3496.13	82.8647
3495.93	87.6749
3495.74	87.7049
3495.55	82.037
3495.36	84.9529
3495.17	66.8929
3494.97	67.8889
3494.78	66.0198
3494.59	66.053
3494.4	66.0838
3494.2	68.9742
3494.01	58.5066
3493.82	63.2845
3493.63	53.7314
3493.43	60.3672
3493.24	67.0342
3493.05	48.9473
3492.86	59.4952
3492.66	40.4854
3492.47	51.9183
3492.28	55.5109
3492.09	42.1323
3491.89	46.9695
3491.7	47.1084
3491.51	40.4874
3491.32	47.087
3491.12	39.4127
3490.93	45.9861
3490.74	32.7466
3490.55	31.7311
3490.35	33.6825
3490.16	31.6626
3489.97	42.0443
3489.78	31.4303
3489.58	31.3555
3489.39	43.7506
3489.2	39.8865
3489.01	34.129
3488.81	43.6519
3488.62	22.6779
3488.43	23.6805
3488.23	28.4951
3488.04	18.9949
3487.85	28.5646
3487.66	26.6906
3487.46	16.2428
3487.27	23.9299
3487.08	23.0269
3486.89	25.94
3486.69	26.9414
3486.5	18.3914
3486.31	30.8511
3486.11	20.39
3485.92	17.5698
3485.73	14.7507
3485.54	32.0011
3485.34	20.5898
3485.15	26.3997
3484.96	15.9864
3484.76	8.41338
3484.57	14.2236
3484.38	23.8517
3484.19	16.2433
3483.99	16.2952
3483.8	8.70908
3483.61	7.81297
3483.42	6.90218
3483.22	12.694
3483.03	26.1509
3482.84	16.6087
3482.64	19.5226
3482.45	7.09576
3482.26	9.03181
3482.06	-0.525528
3481.87	21.5358
3481.68	2.27856
3481.48	4.1981
3481.29	2.41243
3481.1	1.57326
3480.91	3.18652
3480.71	2.08536
3480.52	12.5269
3480.33	11.5791
3480.13	-0.740814
3479.94	2.26978
3479.75	-1.55386
3479.56	6.09459
3479.36	6.09657
3479.17	6.08891
3478.98	9.91689
3478.78	-1.54659
3478.59	5.15796
3478.4	9.95355
3478.2	7.108
3478.01	-2.39241
3477.82	5.43596
3477.62	3.71941
3477.43	6.65427
3477.24	0.956238
3477.04	18.2554
3476.85	0.239273
3476.66	-6.3324
3476.46	3.39055
3476.27	4.14415
3476.08	-1.82146
3475.88	4.58876
3475.69	6.71989
3475.5	-10.3438
3475.31	3.27396
3475.11	7.15758
3474.92	-0.914322
3474.73	5.66138
3474.53	0.400818
3474.34	2.83507
3474.15	2.81299
3473.95	-1.64896
3473.76	-1.81686
3473.57	3.03575
3473.37	4.16934
3473.18	2.41121
3472.99	-7.23459
3472.79	6.84831
3472.6	0.243378
3472.41	5.3732
3472.21	7.4695
3472.02	-2.76834
3471.83	-11.1116
3471.63	1.11992
3471.44	3.43503
3471.24	8.15723
3471.05	-0.101791
3470.86	-4.23027
3470.66	-1.2751
3470.47	7.78432
3470.28	1.90729
3470.08	-0.653305
3469.89	-5.07043
3469.7	-9.70203
3469.5	2.77794
3469.31	2.64185
3469.12	-3.13708
3468.92	-5.03557
3468.73	3.66275
3468.54	-11.6178
3468.34	-14.4679
3468.15	6.57762
3467.96	4.63527
3467.76	6.69962
3467.57	-4.66573
3467.38	-3.58147
3467.18	4.16969
3466.99	-6.37285
3466.79	8.10095
3466.6	10.0817
3466.41	11.1025
3466.21	2.49471
3466.02	-4.21701
3465.83	9.22954
3465.63	2.50401
3465.44	9.27744
3465.24	0.674026
3465.05	4.57283
3464.86	-2.10596
3464.66	9.48921
3464.47	-2.96072
3464.28	4.78964
3464.08	-2.84877
3463.89	-0.864929
3463.7	-6.58267
3463.5	0.208664
3463.31	5.07642
3463.11	4.1754
3462.92	2.31972
3462.73	-11.095
3462.53	-11.0395
3462.34	-5.21091
3462.14	-0.348175
3461.95	-8.97086
3461.76	-1.22198
3461.56	-5.03403
3461.37	1.74911
3461.18	-3.99991
3460.98	9.51535
3460.79	10.5188
3460.59	-3.8855
3460.4	-8.65356
3460.21	9.68503
3460.01	-0.87204
3459.82	-0.819458
3459.62	7.95789
3459.43	-1.58083
3459.24	-3.44826
3459.04	1.39102
3458.85	9.06087
3458.66	6.15567
3458.46	11.9443
3458.27	2.36179
3458.07	0.496155
3457.88	-3.29037
3457.68	2.52144
3457.49	-2.29068
3457.3	6.38756
3457.1	0.624924
3456.91	0.652145
3456.71	1.64682
3456.52	4.57817
3456.33	4.6443
3456.13	2.80003
3455.94	3.85553
3455.74	3.94017
3455.55	5.92755
3455.36	16.5657
3455.16	11.779
3454.97	6.04747
3454.77	6.1073
3454.58	2.30592
3454.39	4.28621
3454.19	15.9068
3454	6.31604
3453.8	7.33313
3453.61	12.2107
3453.41	2.62436
3453.22	5.5755
3453.03	7.51627
3452.83	12.4041
3452.64	13.4866
3452.44	9.74834
3452.25	2.12756
3452.05	1.19905
3451.86	10.8712
3451.67	23.4456
3451.47	9.9752
3451.28	9.09236
3451.08	15.9077
3450.89	3.36388
3450.69	17.8399
3450.5	7.24187
3450.31	18.8483
3450.11	19.8452
3449.92	14.0849
3449.72	4.46494
3449.53	16.0672
3449.33	11.2734
3449.14	11.3046
3448.94	20.022
3448.75	11.3837
3448.56	15.2787
3448.36	22.0555
3448.17	12.4379
3447.97	32.7049
3447.78	17.4151
3447.58	10.8111
3447.39	12.6727
3447.19	25.0834
3447	20.4004
3446.81	18.7383
3446.61	15.2019
3446.42	22.9229
3446.22	24.4411
3446.03	30.1029
3445.83	22.446
3445.64	12.9975
3445.44	14.2485
3445.25	16.1658
3445.06	25.7512
3444.86	39.2803
3444.67	31.6938
3444.47	36.6224
3444.28	22.2265
3444.08	27.0376
3443.89	25.1364
3443.69	39.0418
3443.5	35.4263
3443.3	28.0378
3443.11	23.3823
3442.91	34.1005
3442.72	32.1452
3442.52	39.8592
3442.33	44.6833
3442.14	38.9576
3441.94	34.1836
3441.75	46.7547
3441.55	46.7856
3441.36	47.7938
3441.16	51.7088
3440.97	46.9762
3440.77	38.3794
3440.58	42.3191
3440.38	55.912
3440.19	58.912
3439.99	56.1259
3439.8	57.2089
3439.6	46.7646
3439.41	57.6278
3439.21	59.4812
3439.02	77.5837
3438.82	73.0689
3438.63	74.383
3438.43	64.7846
3438.24	81.2551
3438.05	92.8541
3437.85	91.8458
3437.66	96.6044
3437.46	84.9173
3437.27	105.179
3437.07	98.4752
3436.88	98.5302
3436.68	114.045
3436.49	123.79
3436.29	123.886
3436.1	131.709
3435.9	125.039
3435.71	149.277
3435.51	152.264
3435.31	164.909
3435.12	172.738
3434.93	179.656
3434.73	197.099
3434.54	204.81
3434.34	238.619
3434.15	229.949
3433.95	245.452
3433.76	261.914
3433.56	287.082
3433.37	332.504
3433.17	330.537
3432.98	352.692
3432.78	388.648
3432.58	389.157
3432.39	430.594
3432.19	469.785
3432	523.815
3431.8	533.613
3431.61	585.022
3431.41	636.478
3431.22	684.696
3431.02	752.957
3430.83	808.776
3430.63	855.966
3430.44	870.359
3430.24	899.243
3430.05	958.982
3429.85	963.546
3429.66	1037.53
3429.46	1010.99
3429.27	977.598
3429.07	962.489
3428.88	965.662
3428.68	935.967
3428.48	901.498
3428.29	870.087
3428.09	785.359
3427.9	728.362
3427.7	691.445
3427.51	656.94
3427.31	622.313
3427.12	573.297
3426.92	526.462
3426.73	488.97
3426.53	487.116
3426.34	429.292
3426.14	411.109
3425.95	369.851
3425.75	342.982
3425.55	310.29
3425.36	300.608
3425.16	255.19
3424.97	287.999
3424.77	258.137
3424.58	239.898
3424.38	235.18
3424.19	217.889
3423.99	217.012
3423.79	198.765
3423.6	185.333
3423.4	183.47
3423.21	169.035
3423.01	177.735
3422.82	165.208
3422.62	173.949
3422.43	144.094
3422.23	147.003
3422.04	134.441
3421.84	142.127
3421.64	128.62
3421.45	116.095
3421.25	109.378
3421.06	101.714
3420.86	101.767
3420.67	86.407
3420.47	93.2252
3420.27	99.1009
3420.08	82.8164
3419.88	85.7851
3419.69	88.7204
3419.49	83.9342
3419.3	73.3615
3419.1	81.0979
3418.91	85.9417
3418.71	68.6258
3418.51	74.3724
3418.32	71.4541
3418.12	77.2633
3417.93	71.5454
3417.73	55.2549
3417.53	61.0926
3417.34	64.0225
3417.14	60.2074
3416.95	42.9267
3416.75	54.5426
3416.56	42.1194
3416.36	52.787
3416.16	43.2222
3415.97	53.8326
3415.77	46.1528
3415.58	52.9253
3415.38	48.1658
3415.19	48.2233
3414.99	36.7433
3414.79	45.4685
3414.6	50.3485
3414.4	48.5005
3414.21	51.4702
3414.01	33.2859
3413.81	41.0593
3413.62	40.1532
3413.42	35.395
3413.22	37.3681
3413.03	39.3352
3412.83	30.7132
3412.64	40.3569
3412.44	43.2591
3412.25	38.4704
3412.05	33.6944
3411.85	44.3072
3411.66	33.7845
3411.46	41.5329
3411.27	34.8774
3411.07	34.0022
3410.87	36.9824
3410.68	33.2387
3410.48	39.0876
3410.28	31.4561
3410.09	30.5556
3409.89	32.5376
3409.7	30.6746
3409.5	35.5412
3409.3	23.1006
3409.11	27.9633
3408.91	32.822
3408.72	31.9069
3408.52	29.0952
3408.32	27.2683
3408.13	17.7401
3407.93	38.9096
3407.73	32.1365
3407.54	32.1876
3407.34	35.2435
3407.15	34.4234
3406.95	26.7389
3406.75	33.2779
3406.56	22.3315
3406.36	36.029
3406.17	37.5193
3405.97	30.9109
3405.77	32.8329
3405.58	27.9818
3405.38	32.7261
3405.18	25.1029
3404.99	29.9519
3404.79	34.8313
3404.59	23.4003
3404.4	32.0284
3404.2	29.2126
3404	28.3982
3403.81	16.0734
3403.61	29.5683
3403.42	29.3985
3403.22	26.5441
3403.02	21.1481
3402.83	24.1872
3402.63	22.3268
3402.43	27.1788
3402.24	30.8603
3402.04	33.5362
3401.84	28.6115
3401.65	26.0821
3401.45	28.3806
3401.26	26.512
3401.06	44.526
3400.86	28.8556
3400.67	29.0934
3400.47	29.347
3400.27	27.6431
3400.08	28.575
3399.88	31.3901
3399.68	44.6492
3399.49	33.2095
3399.29	28.7633
3399.09	42.6245
3398.9	31.1193
3398.7	35.3147
3398.5	47.6859
3398.31	31.482
3398.11	23.2127
3397.91	34.9314
3397.72	40.6843
3397.52	31.1567
3397.32	38.8319
3397.13	41.8484
3396.93	43.8993
3396.73	40.2917
3396.54	39.3864
3396.34	38.4383
3396.14	44.221
3395.95	29.8897
3395.75	15.5396
3395.55	36.645
3395.36	49.0772
3395.16	50.9112
3394.96	50.9097
3394.77	44.2544
3394.57	33.799
3394.37	53.0196
3394.18	52.1541
3393.98	51.3289
3393.78	53.3534
3393.59	49.6496
3393.39	43.0947
3393.19	40.3829
3393	49.1414
3392.8	51.0818
3392.6	49.0101
3392.4	47.9655
3392.21	44.1509
3392.01	51.1159
3391.81	55.9113
3391.62	62.0977
3391.42	52.4825
3391.22	56.8964
3391.03	46.6766
3390.83	58.1662
3390.63	66.4888
3390.44	71.9088
3390.24	65.1701
3390.04	71.0414
3389.84	56.526
3389.65	66.2362
3389.45	63.4239
3389.25	73.7887
3389.06	66.0524
3388.86	72.8344
3388.66	66.4211
3388.47	73.2334
3388.27	95.1677
3388.07	75.0746
3387.87	90.3887
3387.68	77.1176
3387.48	82.8757
3387.28	94.3312
3387.09	92.4251
3386.89	109.581
3386.69	111.535
3386.49	105.902
3386.3	107.881
3386.1	108.889
3385.9	98.4484
3385.71	138.581
3385.51	128.184
3385.31	130.193
3385.11	141.75
3384.92	139.007
3384.72	150.595
3384.52	154.638
3384.32	153.932
3384.13	150.242
3383.93	168.497
3383.73	163.756
3383.54	179.953
3383.34	182.782
3383.14	184.687
3382.95	198.998
3382.75	207.568
3382.55	200.856
3382.35	218.958
3382.16	199.905
3381.96	227.62
3381.76	223.918
3381.56	210.689
3381.37	255.62
3381.17	232.833
3380.97	238.66
3380.77	235.897
3380.58	241.713
3380.38	249.431
3380.18	229.473
3379.98	256.254
3379.79	261.082
3379.59	254.455
3379.39	242.1
3379.19	238.328
3379	238.369
3378.8	260.326
3378.6	233.644
3378.4	234.627
3378.21	213.696
3378.01	219.47
3377.81	208.126
3377.61	210.148
3377.42	204.546
3377.22	206.557
3377.02	213.323
3376.82	187.619
3376.63	192.427
3376.43	179.123
3376.23	187.741
3376.03	177.277
3375.84	158.244
3375.64	169.714
3375.44	158.329
3375.24	154.571
3375.05	138.433
3374.85	159.449
3374.65	144.265
3374.45	130.006
3374.25	131.92
3374.06	128.256
3373.86	131.266
3373.66	118.077
3373.46	116.307
3373.27	119.297
3373.07	120.398
3372.87	100.479
3372.67	101.523
3372.48	90.1507
3372.28	99.7442
3372.08	95.0147
3371.88	93.1544
3371.68	100.844
3371.49	94.2124
3371.29	83.7441
3371.09	76.1439
3370.89	88.5833
3370.7	69.6051
3370.5	82.0836
3370.3	71.6909
3370.1	72.7169
3369.9	81.3502
3369.71	82.3627
3369.51	70.9984
3369.31	61.5442
3369.11	57.8105
3368.92	75.0427
3368.72	67.5115
3368.52	54.2608
3368.32	65.7761
3368.12	48.6999
3367.93	54.4894
3367.73	49.7941
3367.53	56.5289
3367.33	45.1619
3367.13	45.239
3366.94	40.5842
3366.74	54.0299
3366.54	39.7983
3366.34	45.5611
3366.14	44.6527
3365.95	43.7497
3365.75	50.4742
3365.55	55.2995
3365.35	39.1802
3365.15	35.4465
3364.95	40.2903
3364.76	33.7348
3364.56	33.8392
3364.36	33.9021
3364.16	28.2507
3363.97	38.7857
3363.77	33.1501
3363.57	38.9653
3363.37	40.9746
3363.17	35.362
3362.97	36.4135
3362.78	39.3658
3362.58	37.5475
3362.38	41.4431
3362.18	25.3215
3361.98	32.0761
3361.79	28.3393
3361.59	18.8681
3361.39	25.5749
3361.19	23.7189
3360.99	29.4917
3360.79	26.691
3360.6	28.6528
3360.4	29.6626
3360.2	23.0544
3360	23.1079
3359.8	22.2089
3359.6	18.4561
3359.41	16.6103
3359.21	21.4326
3359.01	19.5991
3358.81	14.9165
3358.61	21.6549
3358.41	19.8314
3358.22	18.0118
3358.02	29.5356
3357.82	26.7994
3357.62	15.4868
3357.42	16.5415
3357.22	14.7258
3357.03	21.4691
3356.83	17.7253
3356.63	23.5004
3356.43	27.3623
3356.23	12.1781
3356.03	16.9828
3355.84	9.41806
3355.64	21.8545
3355.44	19.0744
3355.24	16.283
3355.04	6.83965
3354.84	11.6705
3354.64	17.4561
3354.44	20.3891
3354.25	14.7604
3354.05	16.7423
3353.85	10.1629
3353.65	11.1919
3353.45	16.0283
3353.25	11.3495
3353.06	12.3784
3352.86	8.65115
3352.66	10.6414
3352.46	11.6851
3352.26	11.7849
3352.06	14.7352
3351.86	6.24951
3351.67	12.9839
3351.47	6.39127
3351.27	17.8854
3351.07	9.41368
3350.87	2.84883
3350.67	4.84929
3350.47	13.508
3350.27	3.12032
3350.08	15.5787
3349.88	10.8931
3349.68	3.34624
3349.48	9.12024
3349.28	8.2234
3349.08	5.42023
3348.88	12.1333
3348.68	13.1406
3348.49	7.48083
3348.29	10.3745
3348.09	13.2708
3347.89	11.4209
3347.69	5.78191
3347.49	7.75668
3347.29	2.13553
3347.09	1.27361
3346.9	8.02457
3346.7	10.0285
3346.5	12.0341
3346.3	7.38025
3346.1	1.79262
3345.9	4.74945
3345.7	1.98438
3345.5	6.81934
3345.3	5.94276
3345.1	10.7921
3344.91	8.02025
3344.71	2.38368
3344.51	13.872
3344.31	6.3315
3344.11	9.27298
3343.91	-1.0954
3343.71	14.244
3343.51	10.5352
3343.31	-2.71185
3343.11	7.83156
3342.92	3.14481
3342.72	6.08008
3342.52	-0.500732
3342.32	4.34785
3342.12	7.29422
3341.92	2.62508
3341.72	1.77849
3341.52	3.79425
3341.32	-6.59059
3341.12	4.93535
3340.93	7.88081
3340.73	-1.56471
3340.53	0.427933
3340.33	2.41927
3340.13	8.22408
3339.93	6.40163
3339.73	15.0649
3339.53	-2.01349
3339.33	5.69711
3339.13	3.87383
3338.93	1.10219
3338.74	13.53
3338.54	2.17441
3338.34	3.24947
3338.14	-6.15025
3337.94	2.57693
3337.74	2.70619
3337.54	-7.67923
3337.34	9.62616
3337.14	-4.60703
3336.94	4.06676
3336.74	4.12874
3336.54	6.0659
3336.34	-1.53705
3336.14	5.21437
3335.94	8.1534
3335.74	0.613647
3335.55	8.33705
3335.35	-2.0795
3335.15	3.74188
3334.95	9.58366
3334.75	-7.49582
3334.55	6.94621
3334.35	-10.1587
3334.15	0.448029
3333.95	8.1792
3333.75	-1.29883
3333.55	-4.08353
3333.35	-9.73425
3333.15	-3.91779
3332.95	5.71831
3332.75	-5.68068
3332.55	2.99655
3332.35	-5.53618
3332.16	-4.50694
3331.96	-0.61232
3331.76	4.23492
3331.56	13.8564
3331.36	-0.382858
3331.16	-0.319061
3330.96	-1.22818
3330.76	-4.04878
3330.56	-3.99229
3330.36	-2.01929
3330.16	0.930115
3329.96	1.99887
3329.76	-9.35741
3329.56	5.07797
3329.36	2.32039
3329.16	-3.29056
3328.96	2.59419
3328.76	-3.98395
3328.56	-1.01215
3328.36	-6.67289
3328.16	0.113922
3327.96	5.93858
3327.76	6.01587
3327.56	5.12856
3327.37	-6.29463
3327.17	7.14378
3326.97	3.36925
3326.77	4.36436
3326.57	-3.25398
3326.37	1.58485
3326.17	-2.15034
3325.97	-2.05775
3325.77	7.54335
3325.57	-1.00114
3325.37	-6.5397
3325.17	7.8112
3324.97	0.970261
3324.77	1.95619
3324.57	4.04364
3324.37	-2.50871
3324.17	-2.36758
3323.97	-7.02955
3323.77	2.64447
3323.57	3.68259
3323.37	5.69133
3323.17	3.88168
3322.97	9.70668
3322.77	4.01823
3322.57	3.14697
3322.37	-6.36062
3322.17	-5.3672
3321.97	0.463196
3321.77	1.52786
3321.57	-4.09607
3321.37	-0.149643
3321.17	7.65704
3320.97	-0.814224
3320.77	-2.61594
3320.57	-6.36225
3320.37	1.37604
3320.17	-4.31687
3319.97	5.3266
3319.77	-0.365936
3319.57	-1.26645
3319.37	3.57648
3319.17	-8.83104
3318.97	6.53636
3318.77	-2.02295
3318.57	3.78352
3318.37	4.80719
3318.17	1.05144
3317.97	-4.58993
3317.77	-1.6116
3317.57	-0.56073
3317.37	-0.467209
3317.17	-4.20409
3316.97	-0.275482
3316.77	-5.92693
3316.57	8.50003
3316.37	-6.70508
3316.17	13.5475
3315.97	1.15555
3315.77	3.93301
3315.57	3.93845
3315.37	4.11337
3315.17	-0.477631
3314.97	-4.10931
3314.77	-3.93333
3314.57	0.956268
3314.37	-3.81304
3314.17	0.0804138
3313.97	-2.78764
3313.77	1.03073
3313.56	-8.5565
3313.37	-1.83921
3313.17	3.08983
3312.97	9.97079
3312.76	-1.41319
3312.56	-1.31676
3312.36	1.55484
3312.16	10.1815
3311.96	-6.06284
3311.76	3.6091
3311.56	-3.00306
3311.36	-8.67906
3311.16	-0.940948
3310.96	-2.77822
3310.76	1.13767
3310.56	0.262871
3310.36	2.25702
3310.16	-2.46334
3309.96	-0.47229
3309.76	3.43233
3309.56	0.626381
3309.36	2.62106
3309.16	-1.12551
3308.96	-5.82765
3308.76	2.88998
3308.56	1.05873
3308.35	-0.75676
3308.15	1.28004
3307.95	-2.42902
3307.75	4.40401
3307.55	1.62762
3307.35	1.72376
3307.15	0.863312
3306.95	-5.76668
3306.75	-0.874832
3306.55	0.157143
3306.35	-0.758492
3306.15	2.20193
3305.95	9.0097
3305.75	-0.509277
3305.55	-3.30383
3305.35	1.58815
3305.14	1.67432
3304.94	5.58284
3304.74	5.69215
3304.54	13.5039
3304.34	-7.52281
3304.14	-3.54707
3303.94	3.31373
3303.74	6.31673
3303.54	5.41502
3303.34	3.51176
3303.14	4.47433
3302.94	-10.8914
3302.74	7.46241
3302.53	6.70034
3302.33	-3.69609
3302.13	-5.57527
3301.93	0.206741
3301.73	4.03543
3301.53	-1.74261
3301.33	1.21848
3301.13	-0.642639
3300.93	-13.0513
3300.73	5.2988
3300.53	-4.2519
3300.33	1.62163
3300.13	-3.04698
3299.92	-1.01167
3299.72	1.97459
3299.52	-0.877586
3299.32	1.97232
3299.12	3.92147
3298.92	2.05824
3298.72	-7.49195
3298.52	-0.685379
3298.32	-1.56416
3298.12	-10.1147
3297.92	2.50719
3297.71	13.22
3297.51	-4.95233
3297.31	-0.0313492
3297.11	7.7734
3296.91	10.7382
3296.71	3.09502
3296.51	2.20517
3296.31	0.343964
3296.11	-2.49316
3295.9	2.36823
3295.7	1.46274
3295.5	-2.32629
3295.3	-5.15133
3295.1	2.61098
3294.9	2.65364
3294.7	-7.87907
3294.5	0.847633
3294.3	-2.92417
3294.1	-7.64854
3293.89	1.10114
3293.69	2.15147
3293.49	5.12195
3293.29	0.390015
3293.09	0.468384
3292.89	1.5072
3292.69	-1.30865
3292.49	-3.1785
3292.28	6.50801
3292.08	-1.12254
3291.88	1.89266
3291.68	3.08572
3291.48	-1.70922
3291.28	-5.59362
3291.08	-7.53871
3290.88	1.22224
3290.67	-5.47363
3290.47	-8.35915
3290.27	10.873
3290.07	5.13983
3289.87	4.23667
3289.67	4.37535
3289.47	-2.23576
3289.27	-0.211304
3289.06	9.50558
3288.86	7.66329
3288.66	1.01385
3288.46	-3.71925
3288.26	16.5661
3288.06	0.279259
3287.86	-0.603561
3287.65	6.22364
3287.45	1.50196
3287.25	-11.8885
3287.05	-5.06281
3286.85	-0.172821
3286.65	5.69064
3286.45	11.5468
3286.24	-3.79073
3286.04	-3.71427
3285.84	3.09854
3285.64	-2.6246
3285.44	7.05969
3285.24	6.146
3285.03	7.15134
3284.83	-0.516182
3284.63	3.35431
3284.43	-4.27924
3284.23	2.41903
3284.03	-6.15777
3283.82	4.464
3283.62	3.58073
3283.42	-0.170219
3283.22	6.85851
3283.02	5.93443
3282.82	5.07957
3282.62	0.389847
3282.41	0.219215
3282.21	1.01115
3282.01	1.91717
3281.81	3.3369
3281.61	-1.36422
3281.41	2.56488
3281.2	0.699776
3281	7.49881
3280.8	4.67232
3280.6	5.70213
3280.4	8.65529
3280.2	0.0485382
3279.99	4.91228
3279.79	4.95775
3279.59	6.93759
3279.39	2.19419
3279.19	6.1085
3278.98	0.402458
3278.78	3.3561
3278.58	2.46666
3278.38	-2.26688
3278.18	3.58647
3277.98	3.66741
3277.77	-3.95491
3277.57	-4.84206
3277.37	9.67464
3277.17	3.97177
3276.97	5.0061
3276.76	-3.59173
3276.56	-2.56609
3276.36	-4.43369
3276.16	4.28818
3275.96	7.23145
3275.75	-10.0354
3275.55	-2.27203
3275.35	1.66342
3275.15	5.48823
3274.95	2.63931
3274.74	9.46668
3274.54	0.877274
3274.34	-0.870926
3274.14	-3.89658
3273.94	1.84715
3273.73	2.84959
3273.53	7.72303
3273.33	6.87307
3273.13	7.93607
3272.93	-2.5614
3272.72	5.22414
3272.52	2.4304
3272.32	3.48296
3272.12	5.49154
3271.92	-0.202896
3271.71	0.811707
3271.51	11.4541
3271.31	6.71841
3271.11	4.87559
3270.91	-0.820351
3270.7	9.84367
3270.5	6.07103
3270.3	10.9615
3270.1	2.3733
3269.9	7.26453
3269.69	7.33621
3269.49	0.655472
3269.29	11.3107
3269.09	7.5248
3268.88	0.845108
3268.68	8.59933
3268.48	9.60593
3268.28	0.985298
3268.08	9.69419
3267.87	4.9299
3267.67	8.82346
3267.47	7.90601
3267.27	7.95409
3267.06	0.312042
3266.86	13.8363
3266.66	11.0149
3266.46	13.0102
3266.25	0.581612
3266.05	2.58986
3265.85	10.3781
3265.65	-1.08411
3265.44	16.3474
3265.24	3.92651
3265.04	8.83271
3264.84	11.7977
3264.64	11.861
3264.43	9.99268
3264.23	6.19355
3264.03	3.35469
3263.83	10.1474
3263.62	10.1888
3263.42	4.44502
3263.22	11.2187
3263.02	9.32077
3262.81	4.54683
3262.61	5.55137
3262.41	10.4016
3262.21	9.47837
3262	8.56058
3261.8	0.919174
3261.6	-2.86813
3261.4	18.3586
3261.19	5.91507
3260.99	6.94297
3260.79	7.99393
3260.59	12.9016
3260.38	-0.616959
3260.18	8.13793
3259.98	9.20374
3259.78	9.3325
3259.57	11.3796
3259.37	6.62777
3259.17	2.83186
3258.96	-0.99176
3258.76	0.977486
3258.56	2.03599
3258.36	1.12627
3258.15	3.10175
3257.95	4.10221
3257.75	2.20975
3257.55	7.05931
3257.34	5.17893
3257.14	1.36082
3256.94	10.0544
3256.73	9.12255
3256.53	10.1173
3256.33	13.0369
3256.13	14.9955
3255.92	13.1094
3255.72	9.30376
3255.52	12.2314
3255.31	10.359
3255.11	11.3991
3254.91	10.5
3254.71	4.78812
3254.5	1.952
3254.3	1.03448
3254.1	1.07343
3253.9	10.727
3253.69	5.01623
3253.49	15.6472
3253.29	8.02104
3253.08	13.8549
3252.88	5.27606
3252.68	2.46582
3252.47	4.46169
3252.27	6.4541
3252.07	6.51897
3251.87	9.46504
3251.66	9.51997
3251.46	3.79817
3251.26	12.4995
3251.05	4.84293
3250.85	11.6045
3250.65	4.89745
3250.44	8.75774
3250.24	3.96298
3250.04	9.73866
3249.84	0.165291
3249.63	6.92173
3249.43	8.89159
3249.23	0.316513
3249.02	4.2279
3248.82	9.10232
3248.62	10.1377
3248.41	2.52839
3248.21	17.9749
3248.01	3.66521
3247.8	13.3526
3247.6	11.4766
3247.4	7.66905
3247.2	8.66522
3246.99	8.69712
3246.79	8.72505
3246.59	2.98445
3246.38	9.72607
3246.18	8.77409
3245.98	5.89117
3245.77	3.024
3245.57	11.6797
3245.37	13.5931
3245.16	4.96172
3244.96	4.04004
3244.76	6.00282
3244.55	3.22063
3244.35	11.9259
3244.15	-2.38467
3243.94	8.22802
3243.74	6.3517
3243.54	10.2475
3243.33	11.2821
3243.13	6.5583
3242.93	6.62238
3242.72	3.80536
3242.52	11.5427
3242.32	11.6053
3242.11	5.90506
3241.91	-4.59821
3241.71	2.16443
3241.5	7.96596
3241.3	18.5719
3241.1	8.06922
3240.89	8.12213
3240.69	5.28362
3240.49	17.7985
3240.28	10.158
3240.08	2.52124
3239.88	6.40367
3239.67	7.41045
3239.47	8.42967
3239.27	7.51534
3239.06	9.47917
3238.86	17.2281
3238.65	7.66972
3238.45	8.66093
3238.25	1.01208
3238.04	-7.59725
3237.84	8.72836
3237.64	17.3668
3237.43	14.5407
3237.23	4.04004
3237.03	6.95921
3236.82	3.17214
3236.62	17.6126
3236.41	6.17437
3236.21	4.3235
3236.01	8.22612
3235.8	6.37257
3235.6	5.47536
3235.4	7.4548
3235.19	14.2281
3234.99	11.3935
3234.79	7.59048
3234.58	11.4551
3234.38	2.8545
3234.18	6.73578
3233.97	7.73322
3233.77	3.93078
3233.56	9.72427
3233.36	5.92303
3233.16	5.9611
3232.95	10.7981
3232.75	8.92123
3232.54	4.16795
3232.34	6.13099
3232.14	12.8925
3231.93	4.30616
3231.73	9.1655
3231.53	7.28111
3231.32	10.1468
3231.12	0.557144
3230.91	4.44585
3230.71	6.45623
3230.51	7.47874
3230.3	8.42385
3230.1	7.4652
3229.89	2.70612
3229.69	-1.06087
3229.49	17.2584
3229.28	2.09457
3229.08	-0.821251
3228.87	3.82652
3228.67	8.61584
3228.47	4.8616
3228.26	8.79839
3228.06	6.01257
3227.85	6.00954
3227.65	9.75349
3227.45	13.6316
3227.24	-0.685539
3227.04	-2.62378
3226.83	2.12426
3226.63	1.94461
3226.43	5.96631
3226.22	3.49628
3226.02	4.59831
3225.81	-0.137726
3225.61	8.51323
3225.41	8.479
3225.2	5.58888
3225	-4.00977
3224.79	1.76266
3224.59	13.2659
3224.39	5.57902
3224.18	17.0658
3223.98	6.54833
3223.77	2.74841
3223.57	-4.86837
3223.36	2.83651
3223.16	8.63175
3222.96	8.67664
3222.75	13.51
3222.55	9.72463
3222.34	10.7286
3222.14	4.07343
3221.94	0.283623
3221.73	7.97838
3221.53	8.00205
3221.32	3.23086
3221.12	3.2422
3220.91	6.11699
3220.71	3.25231
3220.51	-2.4782
3220.3	9.96974
3220.1	6.15965
3219.89	6.18098
3219.69	11.9454
3219.48	4.33254
3219.28	6.29594
3219.07	1.5796
3218.87	-5.05699
3218.67	5.46008
3218.46	9.2621
3218.26	14.0928
3218.05	3.59991
3217.85	4.72935
3217.64	2.96288
3217.44	-0.756119
3217.24	3.88289
3217.03	-3.95956
3216.83	6.66628
3216.62	1.24351
3216.42	4.19418
3216.21	-4.57793
3216.01	8.67978
3215.8	6.80028
3215.6	3.99213
3215.39	1.17897
3215.19	-7.37821
3214.99	10.8535
3214.78	4.20155
3214.58	1.3728
3214.37	5.22686
3214.17	0.451729
3213.96	4.29218
3213.76	6.21822
3213.55	-2.36971
3213.35	4.35899
3213.14	-5.1694
3212.94	8.25923
3212.74	3.50316
3212.53	4.48837
3212.32	7.38756
3212.12	-0.239525
3211.92	2.65639
3211.71	5.55133
3211.51	4.61796
3211.3	-3.97038
3211.1	2.74693
3210.89	-4.8831
3210.69	4.70106
3210.48	-1.97408
3210.28	2.83452
3210.07	6.69854
3209.87	3.89256
3209.66	2.03101
3209.46	-0.790306
3209.25	-5.53009
3209.05	-0.699562
3208.84	6.99786
3208.64	4.15411
3208.44	5.1339
3208.23	5.14605
3208.02	0.360977
3207.82	-0.575562
3207.62	-3.42541
3207.41	3.2918
3207.21	4.26471
3207	2.36819
3206.8	5.26102
3206.59	2.41178
3206.39	-0.434586
3206.18	3.42194
3205.98	8.23944
3205.77	-2.26379
3205.57	9.24071
3205.36	0.638893
3205.16	6.39146
3204.95	4.48106
3204.75	1.6123
3204.54	-0.288506
3204.34	1.64921
3204.13	0.721504
3203.93	4.57894
3203.72	8.43497
3203.52	-3.97666
3203.31	0.836174
3203.11	0.866364
3202.9	2.81515
3202.7	-5.76987
3202.49	-2.87189
3202.29	2.90274
3202.08	1.98038
3201.88	2.96617
3201.67	-3.713
3201.47	3.96617
3201.26	3.00993
3201.06	6.84265
3200.85	1.10532
3200.65	-2.71404
3200.44	-1.74492
3200.23	-1.73244
3200.03	-5.54795
3199.82	-0.749313
3199.62	0.222557
3199.41	-2.6311
3199.21	0.262093
3199	-3.54202
3198.8	7.00586
3198.59	-2.52859
3198.39	-7.2668
