#Acq. time (s)=	60
#Accumulations=	2
#Range (cm-¹)=	1200...2360
#Windows=	3
#Auto scanning=	Off
#Autofocus=	Off
#Macrospot=	Off
#AutoExposure=	Off
#Spike filter=	Multiple accum.
#Delay time (s)=	2
#Binning=	1
#Readout mode=	Signal
#DeNoise=	Off
#ICS correction=	On
#Dark correction=	Off
#Inst. Process=	Off
#Detector Gain=	Best Dynamic
#Detector ADC=	50 kHz HS
#Detector temperature (°C)=	-60.09
#Instrument=	LabRAM HR Evol
#Detector=	SIN-EM FIVIS
#Objective=	x100_VIS_LWD
#Grating=	1800 (450-850nm)
#ND Filter=	100%
#Laser=	532nm_Edge
#Hole=	30.0125
#Temperature=	0
#Range=	Visible
#StageXY=	75x50mm Scan+
#StageZ=	Z motor
#X (µm)=	0
#Y (µm)=	0
#Z (µm)=	-19.4
#Full time(mm:ss)=	6:25
#Project=	21_08_11
#Sample=	BU20
#Site=	
#Title=	BU20-J-FF1-FI03-V_1800 (450-850nm)_532nm_Edge_100%_x100_VIS_LWD_H30um_60sX2
#Remark=	
#Date=	11.08.2021 17:05
#Acquired=	11.08.2021 17:05:31
#Data Range:Extract=	16.12.2021 15:36:30
#Base:Fit=	16.12.2021 15:36:40
#Base:Fit=	16.12.2021 15:57:40
#Base:Sub=	16.12.2021 15:57:41
1201.69	-1.5374
1201.97	-3.64863
1202.25	0.726486
1202.52	-0.29306
1202.8	-2.44502
1203.08	-4.59207
1203.36	-3.51114
1203.63	-1.34425
1203.91	-1.32266
1204.19	-1.28868
1204.47	-1.26781
1204.75	-0.178799
1205.02	-0.167515
1205.3	1.99017
1205.58	-2.29451
1205.86	-0.138676
1206.14	-1.20135
1206.41	0.951832
1206.69	4.17658
1206.97	0.978886
1207.25	0.996418
1207.52	-1.12502
1207.8	4.24595
1208.08	-1.08888
1208.36	-3.21186
1208.63	10.7075
1208.91	-1.03466
1209.19	0.0587692
1209.47	3.28925
1209.74	3.30824
1210.02	-0.954124
1210.3	4.39782
1210.58	6.54564
1210.86	3.3544
1211.13	5.50192
1211.41	3.37919
1211.69	0.191555
1211.96	3.40435
1212.24	0.222519
1212.52	1.30297
1212.8	-2.93911
1213.08	-1.85305
1213.35	0.295074
1213.63	-0.743656
1213.91	0.348042
1214.19	1.439
1214.46	-1.72944
1214.74	2.55351
1215.02	-1.681
1215.29	1.5361
1215.57	-1.63948
1215.85	2.63036
1216.13	-0.55072
1216.41	2.64944
1216.68	-2.65032
1216.96	-1.57166
1217.24	0.56778
1217.51	-3.6624
1217.79	-3.64393
1218.07	-0.441761
1218.35	-1.48218
1218.62	-4.64231
1218.9	-8.86401
1219.18	1.7678
1219.45	-1.39665
1219.73	-2.43375
1220.01	-0.286552
1220.29	-0.263195
1220.56	0.819958
1220.84	1.89868
1221.12	1.91793
1221.4	-0.18655
1221.67	3.00395
1221.95	0.894196
1222.23	4.07703
1222.5	3.02505
1222.78	4.09098
1223.06	1.98455
1223.33	3.05397
1223.61	0.952473
1223.89	5.19186
1224.16	3.09769
1224.44	4.17218
1224.72	7.362
1225	8.4459
1225.27	3.19731
1225.55	7.45027
1225.83	7.47437
1226.1	9.60762
1226.38	5.4025
1226.66	12.8084
1226.93	4.37219
1227.21	8.57938
1227.49	9.62827
1227.76	13.8387
1228.04	15.9248
1228.32	21.1643
1228.6	21.1774
1228.87	21.3124
1229.15	22.516
1229.43	25.6805
1229.7	16.1636
1229.98	31.9638
1230.26	34.0999
1230.53	35.1509
1230.81	39.2427
1231.08	42.4165
1231.36	38.2376
1231.64	39.3112
1231.91	54.0357
1232.19	47.7536
1232.47	58.28
1232.74	62.4964
1233.02	54.113
1233.3	53.0905
1233.57	56.2742
1233.85	64.712
1234.13	60.5461
1234.4	50.0775
1234.68	58.5171
1234.96	57.4976
1235.23	42.8147
1235.51	43.8975
1235.79	39.7163
1236.06	41.8342
1236.34	33.4374
1236.62	30.2958
1236.89	32.3998
1237.17	33.4504
1237.44	31.3507
1237.72	18.7577
1238	25.0569
1238.27	22.9654
1238.55	16.6875
1238.83	19.8494
1239.1	19.8671
1239.38	18.8387
1239.66	17.8122
1239.93	10.498
1240.21	10.5225
1240.48	14.7413
1240.76	16.8638
1241.04	12.6917
1241.31	16.8989
1241.59	15.8677
1241.86	10.6511
1242.14	10.6778
1242.42	5.4652
1242.69	10.7365
1242.97	6.56705
1243.25	-0.747919
1243.52	9.76078
1243.8	11.8812
1244.07	15.0464
1244.35	11.921
1244.63	18.2239
1244.9	10.9
1245.18	19.2886
1245.46	11.9643
1245.73	14.0729
1246.01	18.2795
1246.28	17.2549
1246.56	21.4649
1246.83	20.4373
1247.11	19.4116
1247.39	33.0353
1247.66	24.6683
1247.94	24.6765
1248.21	17.375
1248.49	24.7211
1248.77	26.8405
1249.04	27.9072
1249.32	25.8353
1249.59	22.7209
1249.87	32.1467
1250.15	31.1074
1250.42	33.206
1250.7	36.3507
1250.97	30.0923
1251.25	31.149
1251.52	31.1604
1251.8	35.3484
1252.07	32.2264
1252.35	35.3674
1252.63	29.1151
1252.9	26.0001
1253.18	29.1523
1253.45	32.3137
1253.73	28.1728
1254	24.0318
1254.28	21.9723
1254.56	27.2165
1254.83	24.1101
1255.11	19.9563
1255.38	22.0649
1255.66	15.8235
1255.93	23.1593
1256.21	14.8339
1256.48	16.9485
1256.76	13.8358
1257.03	9.67423
1257.31	14.914
1257.59	18.0653
1257.86	23.304
1258.14	21.2337
1258.41	20.1982
1258.69	24.3918
1258.96	16.0709
1259.24	12.9636
1259.51	6.74437
1259.79	13.0212
1260.07	9.90228
1260.34	15.1263
1260.61	13.0498
1260.89	9.93476
1261.17	19.3434
1261.44	14.1873
1261.72	16.3534
1261.99	19.5778
1262.27	17.4205
1262.54	28.863
1262.82	24.6609
1263.09	34.1326
1263.37	48.8271
1263.64	59.3677
1263.92	67.841
1264.19	66.7474
1264.47	62.5585
1264.74	53.172
1265.02	44.831
1265.29	23.938
1265.57	19.7791
1265.84	16.6691
1266.12	12.5166
1266.39	10.4553
1266.67	10.4862
1266.94	4.24433
1267.22	6.36794
1267.49	7.44772
1267.77	13.766
1268.04	3.33353
1268.32	6.5045
1268.59	8.62749
1268.87	2.36749
1269.14	2.38875
1269.42	7.64106
1269.69	6.60416
1269.97	3.47571
1270.24	8.72314
1270.52	3.50411
1270.79	1.4296
1271.07	3.54
1271.34	8.79395
1271.62	0.450603
1271.89	-1.61331
1272.17	6.79633
1272.44	4.73322
1272.72	1.62006
1272.99	1.64964
1273.27	6.92128
1273.54	0.660093
1273.82	11.1757
1274.09	3.85715
1274.36	0.730545
1274.64	8.09387
1274.92	1.82439
1275.19	6.0469
1275.46	2.9262
1275.74	5.054
1276.01	6.13142
1276.29	1.95942
1276.56	7.23569
1276.84	-1.13795
1277.11	5.19399
1277.39	2.07052
1277.66	5.25142
1277.93	0.021925
1278.21	5.30939
1278.48	8.49179
1278.76	10.6236
1279.03	6.43528
1279.31	12.7647
1279.58	12.7801
1279.86	11.7465
1280.13	17.0291
1280.41	19.1566
1280.68	24.4488
1280.95	28.6976
1281.23	39.2551
1281.5	39.2727
1281.78	58.2465
1282.05	80.3917
1282.33	106.717
1282.6	149.833
1282.87	218.017
1283.15	346.115
1283.42	501.692
1283.7	788.552
1283.97	1090.91
1284.25	1340.86
1284.52	1195.61
1284.79	771.604
1285.07	415.427
1285.34	238.554
1285.62	143.863
1285.89	85.9737
1286.17	72.2788
1286.44	44.9232
1286.71	28.0949
1286.99	26.0021
1287.26	26.0123
1287.53	19.7111
1287.81	19.7302
1288.08	15.5421
1288.36	8.19762
1288.63	14.5384
1288.91	11.4081
1289.18	10.3824
1289.45	9.35741
1289.73	12.5449
1290	8.35311
1290.27	7.31536
1290.55	5.22648
1290.82	5.24572
1291.1	5.26543
1291.37	7.39066
1291.65	2.14427
1291.92	6.37904
1292.19	3.23872
1292.47	2.20214
1292.74	7.48861
1293.01	3.30396
1293.29	2.28376
1293.56	6.53345
1293.84	1.28826
1294.11	12.9071
1294.38	5.544
1294.66	4.51216
1294.93	4.54516
1295.2	0.359837
1295.48	4.62439
1295.75	0.433632
1296.03	1.51464
1296.3	-0.578949
1296.57	1.55247
1296.85	3.68046
1297.12	3.69362
1297.39	2.6497
1297.67	1.60517
1297.94	1.6254
1298.21	-1.52359
1298.49	3.77106
1298.76	-0.437195
1299.04	2.74478
1299.31	3.81824
1299.58	1.73069
1299.86	2.80975
1300.13	-1.39324
1300.4	1.79285
1300.68	1.81086
1300.95	-0.280514
1301.22	-1.31323
1301.5	0.822651
1301.77	8.23884
1302.04	-0.191137
1302.32	2.99694
1302.59	3.01438
1302.86	-1.1942
1303.14	-2.23554
1303.41	-0.106293
1303.68	3.08104
1303.96	-0.0675545
1304.23	-2.16054
1304.5	1.02335
1304.78	-1.07378
1305.05	-2.116
1305.32	2.11802
1305.6	1.07479
1305.87	-1.02182
1306.14	2.15803
1306.42	-3.09663
1306.69	0.088377
1306.96	5.38202
1307.24	0.127031
1307.51	1.20001
1307.78	3.33052
1308.06	0.182999
1308.33	1.25736
1308.6	-0.829088
1308.88	4.46872
1309.15	2.38181
1309.42	-0.761871
1309.69	0.311775
1309.97	-2.8374
1310.24	1.40205
1310.51	3.53242
1310.79	11.9958
1311.06	-2.75962
1311.33	-0.628666
1311.61	-2.7167
1311.88	-1.63832
1312.15	0.49411
1312.43	-2.65503
1312.7	0.52651
1312.97	0.543261
1313.24	1.61543
1313.52	-1.53509
1313.79	2.70497
1314.06	-1.49736
1314.34	1.69041
1314.61	2.76805
1314.88	2.79015
1315.15	-1.41195
1315.43	-2.44648
1315.7	1.7966
1315.97	-2.41152
1316.24	1.82994
1316.52	-3.43305
1316.79	0.809374
1317.06	-1.28161
1317.33	0.851963
1317.61	-0.184174
1317.88	0.891602
1318.15	-0.145998
1318.43	-2.2405
1318.7	0.946363
1318.97	-0.0930386
1319.24	-1.13238
1319.52	-0.0565166
1319.79	-3.20723
1320.06	1.03546
1320.33	-2.11895
1320.61	4.23034
1320.88	3.18408
1321.15	0.0260792
1321.43	3.20478
1321.7	0.0493431
1321.97	0.0631599
1322.24	4.2959
1322.52	1.14609
1322.79	3.26606
1323.06	1.17813
1323.33	-1.96594
1323.61	-0.892885
1323.88	0.178291
1324.15	0.196796
1324.42	2.32176
1324.69	0.234062
1324.97	1.30039
1325.24	-0.801743
1325.51	0.255915
1325.78	3.40963
1326.06	-1.84317
1326.33	-1.82914
1326.6	-1.80599
1326.87	-2.82328
1327.15	2.46967
1327.42	2.49714
1327.69	2.52569
1327.96	-2.71801
1328.23	2.58215
1328.51	-4.78076
1328.78	2.61664
1329.05	-1.582
1329.32	-1.56549
1329.6	-0.494827
1329.87	-1.53535
1330.14	-1.52227
1330.41	-2.56492
1330.68	1.66208
1330.96	-3.59927
1331.23	-0.432352
1331.5	2.7341
1331.77	-0.414364
1332.04	-0.404709
1332.32	-2.49997
1332.59	-0.388103
1332.86	-1.43057
1333.13	-0.370142
1333.4	2.79147
1333.68	0.699924
1333.95	1.76011
1334.22	-4.52829
1334.49	0.731857
1334.76	-0.305542
1335.04	-1.34253
1335.31	1.81703
1335.58	-1.31685
1335.85	2.89088
1336.12	-1.28997
1336.4	6.06252
1336.67	0.835104
1336.94	2.94609
1337.21	-1.23213
1337.48	6.11472
1337.75	4.02809
1338.03	-7.48116
1338.3	3.00543
1338.57	3.01848
1338.84	3.03419
1339.11	3.05165
1339.38	-0.0713787
1339.66	-2.14815
1339.93	2.05822
1340.2	4.17062
1340.47	-2.09653
1340.74	-4.17529
1341.01	-5.20714
1341.29	-2.0514
1341.56	-0.991371
1341.83	-0.979721
1342.1	-5.15497
1342.37	-0.959181
1342.64	-5.13061
1342.92	0.113749
1343.19	3.26677
1343.46	-0.90037
1343.73	-1.92937
1344	-0.866852
1344.27	-0.852095
1344.54	0.206308
1344.82	-3.9642
1345.09	-3.9541
1345.36	5.45994
1345.63	3.3777
1345.9	-2.8833
1346.17	-2.87508
1346.44	-1.82202
1346.72	2.35912
1346.99	4.45303
1347.26	-2.83415
1347.53	1.34851
1347.8	1.36229
1348.07	0.334387
1348.34	0.347118
1348.61	0.358759
1348.89	0.370056
1349.16	-0.659853
1349.43	-3.7719
1349.7	-1.67732
1349.97	1.45731
1350.24	5.62997
1350.51	-0.604023
1350.79	2.52837
1351.06	2.53785
1351.33	-0.568686
1351.6	-1.5932
1351.87	-1.57503
1352.14	1.56595
1352.41	-3.61226
1352.68	-0.471594
1352.95	1.64509
1353.23	4.81651
1353.5	0.645725
1353.77	2.70485
1354.04	2.68794
1354.31	0.625906
1354.58	3.76276
1354.85	1.69261
1355.12	-0.37645
1355.39	0.684631
1355.66	6.94113
1355.94	0.715927
1356.21	1.76786
1356.48	3.85855
1356.75	1.79463
1357.02	3.88391
1357.29	3.89533
1357.56	1.83009
1357.83	4.9547
1358.1	2.88987
1358.37	-1.24967
1358.64	0.835785
1358.92	3.95906
1359.19	3.97104
1359.46	-3.27705
1359.73	0.877888
1360	0.886471
1360.27	4.00446
1360.54	4.01728
1360.81	5.06792
1361.08	3.01104
1361.35	4.06063
1361.62	8.21587
1361.89	7.19197
1362.16	0.991817
1362.43	3.07668
1362.7	2.05788
1362.98	2.07725
1363.25	0.0250206
1363.52	6.25837
1363.79	4.2028
1364.06	6.28792
1364.33	2.15743
1364.6	5.27511
1364.87	8.39007
1365.14	10.4679
1365.41	8.40549
1365.68	8.41349
1365.95	6.35239
1366.22	3.25688
1366.49	4.29672
1366.76	5.33973
1367.03	6.38541
1367.3	8.47005
1367.57	6.42118
1367.85	8.50557
1368.12	7.48892
1368.38	6.47198
1368.66	9.59118
1368.93	24.0845
1369.2	45.8078
1369.47	54.0848
1369.74	35.4851
1370.01	13.7845
1370.28	11.7269
1370.55	5.53734
1370.82	3.47898
1371.09	9.68011
1371.36	6.58593
1371.63	8.65261
1371.9	4.53064
1372.17	3.50657
1372.44	1.45459
1372.71	9.71169
1372.98	9.72231
1373.25	7.67259
1373.52	2.53266
1373.79	4.6062
1374.06	8.74016
1374.33	9.78272
1374.6	8.76324
1374.87	8.77832
1375.14	10.8573
1375.41	5.72083
1375.68	10.8887
1375.95	10.896
1376.22	11.9322
1376.49	5.75903
1376.76	6.78943
1377.03	10.9221
1377.3	10.9445
1377.57	9.94229
1377.84	12.0327
1378.11	8.97613
1378.38	13.122
1378.65	10.0432
1378.92	14.1771
1379.19	15.2172
1379.46	12.1331
1379.73	15.2265
1380	15.2073
1380.27	17.2623
1380.54	17.2554
1380.81	9.05147
1381.08	17.2861
1381.35	21.3938
1381.62	18.3033
1381.89	22.4074
1382.16	19.326
1382.43	16.2443
1382.7	18.3
1382.97	30.6077
1383.24	34.7145
1383.51	26.5163
1383.78	35.7593
1384.05	42.9544
1384.32	49.1331
1384.59	54.2924
1384.86	74.863
1385.13	83.1139
1385.39	104.716
1385.66	127.333
1385.93	172.571
1386.2	233.208
1386.47	407.845
1386.74	692.073
1387.01	1310.65
1387.28	2244.28
1387.55	2843.87
1387.82	2162.43
1388.09	1055.39
1388.36	476.116
1388.63	258.897
1388.9	176.773
1389.17	112.131
1389.44	88.4976
1389.71	66.8898
1389.98	55.567
1390.25	50.467
1390.51	31.9953
1390.78	33.0275
1391.05	29.9641
1391.32	30.9913
1391.59	22.7966
1391.86	23.8238
1392.13	18.7099
1392.4	21.7892
1392.67	22.8214
1392.94	17.7128
1393.21	20.7932
1393.48	20.8034
1393.75	20.814
1394.02	14.6856
1394.28	17.7672
1394.55	13.6904
1394.82	16.781
1395.09	15.776
1395.36	14.7686
1395.63	17.8525
1395.9	13.7688
1396.17	13.7784
1396.44	10.7174
1396.71	11.7485
1396.98	11.7555
1397.25	14.8338
1397.51	12.8007
1397.78	11.7932
1398.05	10.7875
1398.32	14.896
1398.59	11.8422
1398.86	13.9072
1399.13	12.9017
1399.4	12.9186
1399.66	4.74429
1399.93	18.0679
1400.2	12.9713
1400.47	12.9898
1400.74	15.0511
1401.01	6.87488
1401.28	6.88872
1401.55	16.1297
1401.82	14.1132
1402.09	6.96932
1402.35	13.1529
1402.62	10.0989
1402.89	14.2247
1403.16	6.02635
1403.43	6.03511
1403.7	10.1373
1403.97	9.12593
1404.24	18.3712
1404.51	13.2508
1404.77	15.3094
1405.04	13.2648
1405.31	13.2717
1405.58	21.4801
1405.85	15.3383
1406.12	21.4975
1406.39	22.537
1406.65	21.528
1406.92	29.7461
1407.19	34.8886
1407.46	46.183
1407.73	51.3268
1408	64.6741
1408.27	94.432
1408.53	120.095
1408.8	147.813
1409.07	150.918
1409.34	110.935
1409.61	82.23
1409.88	58.6342
1410.15	43.2452
1410.41	26.8359
1410.68	24.7873
1410.95	22.7427
1411.22	14.5531
1411.49	14.5635
1411.76	14.5805
1412.02	9.47834
1412.29	11.5562
1412.56	7.50435
1412.83	9.59758
1413.1	12.6758
1413.36	11.6059
1413.63	4.44463
1413.9	8.57866
1414.17	5.53019
1414.44	8.62009
1414.71	10.6876
1414.97	5.56701
1415.24	7.63359
1415.51	7.64858
1415.78	9.71769
1416.05	6.65243
1416.32	5.64088
1416.58	9.76556
1416.85	7.72727
1417.12	9.79816
1417.39	9.81296
1417.66	4.68834
1417.92	6.75689
1418.19	11.9098
1418.46	2.67311
1418.73	5.76993
1419	9.89071
1419.26	7.84278
1419.53	6.82203
1419.8	6.82936
1420.07	7.86318
1420.34	7.86929
1420.61	6.84962
1420.87	5.83234
1421.14	7.89844
1421.41	4.83709
1421.68	6.91333
1421.94	7.96107
1422.21	5.9328
1422.48	6.99407
1422.75	6.00453
1423.02	8.04174
1423.28	1.80437
1423.55	5.93626
1423.82	6.94778
1424.09	7.97389
1424.36	6.97705
1424.62	6.99782
1424.89	8.05537
1425.16	8.05156
1425.43	6.02736
1425.69	8.0892
1425.96	11.1745
1426.23	5.02567
1426.5	7.08129
1426.77	10.1599
1427.03	7.0871
1427.3	5.04028
1427.57	6.07169
1427.84	6.08158
1428.1	8.14146
1428.37	2.0114
1428.64	9.19353
1428.91	1.01565
1429.17	6.15246
1429.44	5.14537
1429.71	8.23837
1429.98	6.20721
1430.24	11.3528
1430.51	3.17253
1430.78	5.24587
1431.05	3.21036
1431.31	2.19685
1431.58	7.33662
1431.85	2.21186
1432.12	4.2714
1432.38	8.37937
1432.65	4.2795
1432.92	2.23153
1433.19	4.28279
1433.45	6.33589
1433.72	4.29633
1433.99	7.38906
1434.26	7.41015
1434.52	4.34906
1434.79	4.36123
1435.06	3.3478
1435.32	4.3832
1435.59	7.46736
1435.86	3.37892
1436.13	1.33955
1436.4	2.37353
1436.66	5.45605
1436.93	2.39383
1437.2	2.40351
1437.46	4.46175
1437.73	4.47412
1438	2.44059
1438.26	11.6743
1438.53	4.51605
1438.8	1.45534
1439.07	1.46984
1439.33	3.53577
1439.6	4.57905
1439.87	3.56911
1440.13	3.58235
1440.4	1.54353
1440.67	6.68364
1440.94	4.64286
1441.2	4.65058
1441.47	5.68462
1441.74	5.70012
1442	2.63662
1442.27	1.62658
1442.54	2.66194
1442.8	4.72033
1443.07	1.65223
1443.34	3.71151
1443.61	3.72162
1443.87	0.65835
1444.14	-0.350283
1444.41	3.76845
1444.67	6.86587
1444.94	0.720402
1445.21	3.80744
1445.47	3.81662
1445.74	2.80009
1446.01	0.758236
1446.27	6.9214
1446.54	0.777458
1446.81	-1.26422
1447.07	4.89637
1447.34	1.82922
1447.61	3.88985
1447.87	2.87923
1448.14	2.89596
1448.41	4.96035
1448.68	1.89447
1448.94	4.98073
1449.21	1.91232
1449.48	3.97058
1449.74	5.00251
1450.01	1.93612
1450.27	2.97041
1450.54	1.95475
1450.81	-1.11057
1451.07	0.947981
1451.34	5.05539
1451.61	1.99062
1451.87	0.975906
1452.14	-1.06203
1452.41	2.02317
1452.67	2.03655
1452.94	4.09949
1453.21	4.11112
1453.47	4.12034
1453.74	5.15428
1454.01	3.11563
1454.27	0.0524349
1454.54	2.11239
1454.81	4.17088
1455.07	6.23036
1455.34	0.0970554
1455.6	5.23481
1455.87	0.121174
1456.14	2.18044
1456.4	-0.886608
1456.67	3.21889
1456.94	1.17885
1457.2	3.23701
1457.47	0.17342
1457.74	2.23294
1458	3.26832
1458.27	2.2558
1458.53	-0.805973
1458.8	1.25432
1459.07	-1.80812
1459.33	2.30026
1459.6	0.260441
1459.86	1.29406
1460.13	2.32732
1460.4	-0.737152
1460.66	2.34335
1460.93	-0.72098
1461.2	-1.73691
1461.46	1.34178
1461.73	3.39562
1461.99	5.44824
1462.26	2.38403
1462.53	0.343695
1462.79	3.41741
1463.06	3.42267
1463.32	5.47564
1463.59	1.40158
1463.86	0.399136
1464.12	2.46358
1464.39	1.45906
1464.65	3.51376
1464.92	1.43291
1465.18	2.4449
1465.45	1.42846
1465.72	2.46702
1465.98	1.45691
1466.25	2.47873
1466.52	3.50317
1466.78	1.47639
1467.05	3.5258
1467.31	-0.546137
1467.58	2.52329
1467.84	1.51302
1468.11	1.52281
1468.38	1.532
1468.64	1.54023
1468.91	1.54797
1469.17	1.5546
1469.44	1.55977
1469.71	1.56568
1469.97	-1.48432
1470.24	0.561522
1470.5	1.5887
1470.77	-2.47832
1471.03	4.6581
1471.3	-0.42738
1471.56	1.6177
1471.83	3.66338
1472.1	2.65451
1472.36	-2.42716
1472.63	0.636246
1472.89	0.643627
1473.16	2.68622
1473.42	2.69347
1473.69	0.666248
1473.95	-2.37709
1474.22	0.687103
1474.48	2.73432
1474.75	-0.308874
1475.02	2.75412
1475.28	3.78001
1475.55	1.75176
1475.81	1.7593
1476.08	-1.28483
1476.34	1.77434
1476.61	0.763489
1476.88	-1.26274
1477.14	-0.2367
1477.41	2.82342
1477.67	2.83124
1477.94	1.82033
1478.2	0.810263
1478.47	1.83348
1478.73	1.83979
1479	-1.20238
1479.26	3.88265
1479.53	-0.174892
1479.79	-0.171312
1480.06	-0.16732
1480.32	2.8826
1480.59	1.87516
1480.85	0.86713
1481.12	2.90656
1481.38	0.88998
1481.65	-0.111797
1481.91	0.916605
1482.18	1.94469
1482.44	1.95485
1482.71	2.98179
1482.97	-2.08425
1483.24	1.98742
1483.51	3.01187
1483.77	0.983963
1484.04	3.01245
1484.3	1.98731
1484.57	6.01879
1484.83	3.98962
1485.1	0.948097
1485.36	-2.04431
1485.62	1.01529
1485.89	1.03308
1486.15	6.0893
1486.42	3.06604
1486.69	1.05367
1486.95	3.0848
1487.22	-0.962795
1487.48	2.08219
1487.75	4.11354
1488.01	2.09334
1488.28	-0.938797
1488.54	0.0789318
1488.8	3.12148
1489.07	2.11708
1489.33	1.11312
1489.6	0.110432
1489.86	5.17793
1490.13	1.13852
1490.39	1.14403
1490.66	2.16037
1490.92	1.15621
1491.19	3.18638
1491.45	2.18426
1491.72	0.172379
1491.98	4.22519
1492.25	0.189278
1492.51	2.21952
1492.78	4.25068
1493.04	-0.796179
1493.3	0.222935
1493.57	2.25374
1493.83	1.25311
1494.1	1.26421
1494.36	0.261984
1494.63	0.268572
1494.89	4.31485
1495.16	0.274752
1495.42	6.33745
1495.69	0.283455
1495.95	-0.719759
1496.22	4.33451
1496.48	3.33048
1496.74	-0.697979
1497.01	3.34821
1497.27	2.34657
1497.54	-0.67268
1497.8	1.35476
1498.07	5.40088
1498.33	0.364294
1498.59	2.39252
1498.86	2.40264
1499.12	2.41331
1499.39	3.43369
1499.65	4.45305
1499.92	0.423555
1500.18	-1.58741
1500.45	3.46872
1500.71	5.49486
1500.97	-0.557068
1501.24	0.459654
1501.5	3.49533
1501.77	4.51248
1502.03	2.50165
1502.29	2.50622
1502.56	3.51882
1502.82	-0.508377
1503.09	2.52151
1503.35	-1.50368
1503.62	2.54032
1503.88	3.55853
1504.14	0.542229
1504.41	0.550291
1504.67	0.557161
1504.94	3.5878
1505.2	2.5836
1505.47	2.58343
1505.73	1.58289
1505.99	4.61326
1506.26	3.61432
1506.52	1.61157
1506.78	1.62074
1507.05	1.63035
1507.31	0.631338
1507.58	1.64639
1507.84	0.645893
1508.1	8.71535
1508.37	2.67918
1508.63	3.69579
1508.9	0.681118
1509.16	3.71216
1509.42	0.699135
1509.69	3.73388
1509.95	-0.292501
1510.22	-2.3022
1510.48	3.74619
1510.74	1.73503
1511.01	1.73631
1511.27	2.74076
1511.53	2.73818
1511.8	1.73162
1512.06	3.74015
1512.33	2.73842
1512.59	-1.27456
1512.85	-1.26953
1513.12	-1.26314
1513.38	1.75928
1513.64	-0.232651
1513.91	1.78759
1514.17	1.79395
1514.44	2.80269
1514.7	0.797159
1514.96	1.80479
1515.23	3.81412
1515.49	1.80959
1515.75	1.81305
1516.02	1.81925
1516.28	1.82594
1516.54	3.83803
1516.81	0.837599
1517.07	-0.156654
1517.33	-0.147501
1517.6	1.86929
1517.86	3.88494
1518.13	0.885445
1518.39	0.894743
1518.65	2.91072
1518.92	0.913967
1519.18	0.923122
1519.44	0.931089
1519.71	1.94094
1519.97	2.95072
1520.23	3.96264
1520.5	0.962828
1520.76	-1.03411
1521.02	-1.02535
1521.29	2.99581
1521.55	1.99892
1521.81	-0.00156593
1522.08	2.01056
1522.34	0.0105362
1522.6	4.02715
1522.87	0.0190525
1523.13	-0.981733
1523.39	2.02714
1523.66	0.0274487
1523.92	0.0322075
1524.18	0.0373383
1524.45	0.0462837
1524.71	1.05672
1524.97	4.06986
1525.24	1.07549
1525.5	-0.916931
1525.76	2.10119
1526.03	1.11103
1526.29	1.12078
1526.55	-2.88092
1526.81	2.13646
1527.08	2.14275
1527.34	0.144802
1527.6	-0.850864
1527.87	1.15892
1528.13	1.16467
1528.39	-0.83271
1528.66	1.17744
1528.92	2.18641
1529.18	1.19154
1529.44	2.19794
1529.71	-2.80252
1529.97	2.21331
1530.23	1.22303
1530.5	0.232649
1530.76	2.24729
1531.02	0.251804
1531.28	2.26239
1531.55	1.26856
1531.81	1.27386
1532.07	3.28684
1532.34	-0.709539
1532.6	-0.696146
1532.86	4.33127
1533.13	0.330257
1533.39	1.34263
1533.65	1.35036
1533.91	-1.65231
1534.18	0.360243
1534.44	1.3689
1534.7	1.3749
1534.96	1.37971
1535.23	0.376177
1535.49	1.37978
1535.75	-2.62349
1536.01	3.38741
1536.28	1.38539
1536.54	1.38633
1536.8	2.39171
1537.06	0.393713
1537.33	3.40222
1537.59	0.405931
1537.85	0.407635
1538.11	1.41273
1538.38	2.41711
1538.64	3.42817
1538.9	1.44576
1539.17	3.46877
1539.43	4.48864
1539.69	-0.504765
1539.95	0.512589
1540.22	2.53038
1540.48	0.536098
1540.74	0.535662
1541	0.542431
1541.27	-1.45917
1541.53	3.55393
1541.79	1.55275
1542.05	9.56688
1542.32	0.557186
1542.58	-0.440395
1542.84	1.56452
1543.1	2.56669
1543.36	1.56583
1543.63	1.57372
1543.89	1.58154
1544.15	1.5921
1544.41	0.604662
1544.67	-1.38669
1544.94	-0.371649
1545.2	-0.360546
1545.46	-1.35286
1545.72	-0.341581
1545.99	0.665955
1546.25	0.673616
1546.51	-0.319075
1546.77	-0.310127
1547.04	1.70375
1547.3	-0.295078
1547.56	1.70395
1547.82	0.710083
1548.08	3.71944
1548.35	1.73476
1548.61	-0.275919
1548.87	0.711609
1549.13	-0.287754
1549.39	-2.2725
1549.66	0.749317
1549.92	0.785126
1550.18	-1.19767
1550.44	0.841782
1550.71	-1.17467
1550.97	-0.161303
1551.23	1.85186
1551.49	4.86025
1551.75	2.86797
1552.01	1.8813
1552.28	2.88992
1552.54	1.89034
1552.8	3.88789
1553.06	-0.121674
1553.32	0.88736
1553.58	1.89401
1553.85	-0.109556
1554.11	-1.1101
1554.37	-0.107655
1554.63	-1.10485
1554.89	2.90769
1555.16	3.91581
1555.42	1.92025
1555.68	1.9284
1555.94	0.930016
1556.2	-0.0648327
1556.46	1.94642
1556.73	-0.0491657
1556.99	-1.04363
1557.25	2.96956
1557.51	-0.0311413
1557.77	0.971218
1558.04	1.9752
1558.3	-0.0258636
1558.56	-1.02468
1558.82	-0.0220528
1559.08	0.980844
1559.34	1.9841
1559.61	2.98767
1559.87	0.993225
1560.13	-1.99973
1560.39	1.00395
1560.65	0.0109425
1560.91	-1.98045
1561.17	2.02674
1561.44	0.0383701
1561.7	-1.94957
1561.96	0.0578632
1562.22	-0.936268
1562.48	-2.93111
1562.74	-4.92403
1563	0.0816002
1563.27	3.0862
1563.53	0.0979481
1563.79	3.11298
1564.05	-0.880281
1564.31	2.12838
1564.57	0.127062
1564.83	-0.890655
1565.09	-0.92108
1565.36	-0.945001
1565.62	-1.87799
1565.88	-0.847374
1566.14	3.15309
1566.4	3.14395
1566.66	-2.83413
1566.92	3.18871
1567.18	1.19318
1567.45	0.186934
1567.71	-1.80548
1567.97	1.2026
1568.23	-0.78931
1568.49	3.21607
1568.75	2.21598
1569.01	-0.780239
1569.27	3.22295
1569.54	-1.76598
1569.8	0.239578
1570.06	0.246233
1570.32	0.252384
1570.58	2.25682
1570.84	-0.736164
1571.1	0.267056
1571.36	-1.72776
1571.62	-0.722995
1571.89	-1.71717
1572.15	2.28077
1572.41	3.28274
1572.67	-0.707006
1572.93	-0.703265
1573.19	4.29056
1573.45	2.30054
1573.71	0.313423
1573.97	-1.67344
1574.23	1.33201
1574.49	0.343742
1574.76	-0.645086
1575.02	-0.635756
1575.28	0.370996
1575.54	1.37527
1575.8	1.38122
1576.06	-0.612437
1576.32	-2.6086
1576.58	-1.60899
1576.84	3.38293
1577.1	0.388693
1577.36	-1.60549
1577.62	0.390574
1577.88	1.39024
1578.14	-0.598877
1578.41	-0.592951
1578.67	0.409883
1578.93	-1.57785
1579.19	-1.57125
1579.45	0.431185
1579.71	-1.55578
1579.97	-2.54653
1580.23	0.450726
1580.49	-0.541992
1580.75	-2.53234
1581.01	0.462485
1581.27	0.465361
1581.53	-0.528924
1581.79	0.472108
1582.05	0.476963
1582.31	0.481606
1582.57	0.486529
1582.84	-1.50023
1583.1	0.497688
1583.36	-2.48601
1583.62	-1.48449
1583.88	0.514686
1584.14	-0.474327
1584.4	2.5207
1584.66	-0.461733
1584.92	0.539261
1585.18	-0.451197
1585.44	0.549622
1585.7	-3.43119
1585.96	2.54451
1586.22	1.55157
1586.48	-1.43055
1586.74	-0.431234
1587	0.56815
1587.26	-0.421923
1587.52	-1.41112
1587.78	1.58068
1588.04	-0.401893
1588.3	0.601452
1588.56	-1.38151
1588.82	0.617126
1589.08	-0.371009
1589.34	1.62676
1589.6	0.636556
1589.87	3.6305
1590.13	0.651037
1590.39	-3.3249
1590.65	1.6598
1590.91	-2.31795
1591.17	-0.321449
1591.43	0.678761
1591.69	1.67679
1591.95	1.67681
1592.21	-0.312083
1592.47	-1.30284
1592.73	1.68118
1592.99	-0.308071
1593.25	-0.309275
1593.51	1.67888
1593.77	-0.304812
1594.03	-0.299546
1594.29	-2.27916
1594.55	-1.2771
1594.81	2.70499
1595.07	-0.26819
1595.33	1.71528
1595.59	0.727176
1595.85	0.732693
1596.11	-2.24137
1596.37	-0.248915
1596.63	2.73759
1596.89	-2.22237
1597.15	0.765139
1597.41	1.76398
1597.66	2.76146
1597.92	1.77089
1598.18	0.778679
1598.44	-1.20549
1598.7	1.77491
1598.96	4.75459
1599.22	-1.19662
1599.48	1.78249
1599.74	2.77709
1600	-2.17934
1600.26	-0.19402
1600.52	3.77146
1600.78	1.78885
1601.04	2.77904
1601.3	-0.191446
1601.56	-5.13945
1601.82	-2.16653
1602.08	-0.184623
1602.34	-2.16179
1602.6	-0.181079
1602.86	2.78819
1603.12	1.80227
1603.38	0.817202
1603.64	1.81073
1603.9	1.81626
1604.16	2.81094
1604.41	0.838839
1604.67	0.844467
1604.93	0.83531
1605.19	-1.09028
1605.45	-0.150449
1605.71	-2.97268
1605.97	0.845779
1606.23	0.712132
1606.49	0.494147
1606.75	-2.26631
1607.01	0.593878
1607.27	-1.1022
1607.53	4.31013
1607.79	1.38162
1608.05	3.20885
1608.31	0.792331
1608.56	2.47243
1608.82	-0.985954
1609.08	0.792431
1609.34	-0.896411
1609.6	-3.24787
1609.86	2.41122
1610.12	0.288602
1610.38	-0.686809
1610.64	-0.384344
1610.9	-0.800426
1611.16	0.706069
1611.42	-0.171435
1611.68	1.04475
1611.93	-0.4788
1612.19	0.887973
1612.45	-0.688253
1612.71	1.22936
1612.97	-0.864732
1613.23	0.411584
1613.49	-3.02639
1613.75	0.913333
1614.01	-0.67391
1614.27	-0.607614
1614.53	0.386004
1614.78	-1.46707
1615.04	1.21828
1615.3	-0.477179
1615.56	-1.93631
1615.82	0.205805
1616.08	-0.808685
1616.34	0.28023
1616.6	0.140371
1616.86	-1.02381
1617.12	-0.682981
1617.37	0.576557
1617.63	-0.0137272
1617.89	0.0622873
1618.15	0.130427
1618.41	0.400014
1618.67	-1.20948
1618.93	1.07907
1619.19	-0.410802
1619.44	-0.81039
1619.7	0.739364
1619.96	-0.831697
1620.22	-1.23623
1620.48	-0.264536
1620.74	-0.230483
1621	0.699494
1621.26	-2.19063
1621.51	-0.457337
1621.77	-1.49257
1622.03	0.447529
1622.29	-0.491172
1622.55	-0.516923
1622.81	0.425041
1623.07	0.552331
1623.33	-0.397869
1623.58	-1.4482
1623.84	-2.68669
1624.1	-0.0703058
1624.36	-0.871963
1624.62	-3.05932
1624.88	-0.419356
1625.14	-1.22834
1625.39	-2.66868
1625.65	-1.88765
1625.91	-1.5827
1626.17	-0.617185
1626.43	-1.24399
1626.69	-0.959556
1626.94	-1.5201
1627.2	-1.48358
1627.46	-0.638847
1627.72	-0.945767
1627.98	0.0783672
1628.24	-0.889701
1628.5	-0.264257
1628.75	-1.67832
1629.01	-0.656804
1629.27	-0.821626
1629.53	-0.99811
1629.79	0.517164
1630.05	-1.04599
1630.3	-0.918235
1630.41	0.289659
1630.67	-0.69029
1630.94	0.300855
1631.2	-0.676915
1631.46	-1.65497
1631.72	-0.663489
1631.98	-0.658124
1632.24	-0.647738
1632.5	2.3184
1632.77	-1.62814
1633.03	2.31302
1633.29	-0.638226
1633.55	-0.631244
1633.81	0.360704
1634.07	-1.60541
1634.33	-0.614941
1634.59	-2.58203
1634.86	-0.606744
1635.12	1.36798
1635.38	-0.599853
1635.64	0.388515
1635.9	0.391201
1636.16	-5.51692
1636.42	2.36608
1636.68	-1.57162
1636.95	1.38503
1637.21	0.403993
1637.47	0.407619
1637.73	-1.55827
1637.99	-1.55505
1638.25	0.417778
1638.51	-0.56191
1638.77	0.426893
1639.04	2.40001
1639.3	3.38873
1639.56	-1.52886
1639.82	-0.540468
1640.08	-0.534124
1640.34	-0.527109
1640.6	1.44819
1640.86	-2.48633
1641.12	1.45525
1641.38	-1.49527
1641.65	1.46167
1641.91	-2.47223
1642.17	-0.49967
1642.43	-0.495779
1642.69	-2.46046
1642.95	1.48106
1643.21	-0.483939
1643.47	-0.480917
1643.73	-0.478248
1644	-0.476639
1644.26	-2.44069
1644.52	0.514626
1644.78	-0.462141
1645.04	2.49525
1645.3	-4.38753
1645.56	-3.39982
1645.82	0.538963
1646.08	0.541486
1646.34	-1.42316
1646.6	3.49915
1646.86	-1.41711
1647.12	0.553146
1647.39	0.555919
1647.65	-0.422624
1647.91	0.566336
1648.17	7.45964
1648.43	0.581201
1648.69	0.596504
1648.95	-0.3865
1649.21	0.601321
1649.47	1.58771
1649.73	0.609288
1649.99	0.619909
1650.25	2.59613
1650.51	0.633823
1650.77	2.61137
1651.03	0.646487
1651.29	0.651123
1651.55	2.62616
1651.82	1.64517
1652.08	3.62072
1652.34	-0.31928
1652.6	-0.316474
1652.86	-1.29788
1653.12	-1.29338
1653.38	2.65302
1653.64	-0.297353
1653.9	-3.24894
1654.16	0.697898
1654.42	2.67474
1654.68	1.69586
1654.94	2.69005
1655.2	-3.21839
1655.46	0.736279
1655.72	-0.243451
1655.98	-1.2245
1656.24	2.72894
1656.5	-0.228045
1656.76	0.762315
1657.02	-1.2091
1657.28	1.75439
1657.54	-1.20312
1657.8	-0.213525
1658.06	-1.19788
1658.33	-1.19576
1658.59	-0.207379
1658.85	-0.205497
1659.11	0.782433
1659.37	1.76952
1659.63	2.75795
1659.89	-1.17981
1660.15	0.798162
1660.41	-0.181465
1660.67	1.79795
1660.93	-0.167878
1661.19	-0.161825
1661.45	0.831229
1661.71	-0.159979
1661.97	-0.148905
1662.23	3.83188
1662.49	-1.10327
1662.75	-0.115885
1663.01	-0.111148
1663.27	-0.129602
1663.53	-2.10357
1663.79	-1.10419
1664.05	-1.09889
1664.31	0.884479
1664.57	-1.08025
1664.83	0.895041
1665.09	-1.10071
1665.35	-0.0887413
1665.61	0.923028
1665.87	1.91357
1666.13	-5.00051
1666.39	-0.114993
1666.65	0.896458
1666.91	-0.0716524
1667.17	-4.01855
1667.43	0.918307
1667.69	-2.0404
1667.95	-0.0650644
1668.21	0.927931
1668.46	-1.03221
1668.72	1.93857
1668.99	2.93083
1669.25	-1.01587
1669.5	2.93968
1669.76	-1.01114
1670.02	-0.0154924
1670.28	0.986249
1670.54	-0.98706
1670.8	0.99198
1671.06	0.00667667
1671.32	1.98638
1671.58	-0.973152
1671.84	-1.9573
1672.1	2.00089
1672.36	0.027113
1672.62	1.01962
1672.88	-0.953232
1673.14	0.0397339
1673.4	3.01077
1673.66	1.03895
1673.92	-2.91095
1674.18	3.02854
1674.44	0.0671034
1674.7	0.0738468
1674.96	-0.910407
1675.22	-2.88516
1675.47	0.0871935
1675.73	-0.898888
1675.99	0.095212
1676.25	-0.890215
1676.51	-0.886415
1676.77	1.09618
1677.03	1.09868
1677.29	-2.85757
1677.55	1.10165
1677.81	1.102
1678.07	-1.86456
1678.33	0.114627
1678.59	1.10504
1678.85	1.10692
1679.11	0.120706
1679.37	1.11112
1679.63	0.124936
1679.88	-0.86091
1680.14	-0.858802
1680.4	-0.856563
1680.66	1.12189
1680.92	0.136967
1681.18	-0.847604
1681.44	0.143746
1681.7	0.147305
1681.96	0.15102
1682.22	0.154482
1682.48	-2.80627
1682.73	0.160599
1682.99	-2.79964
1683.25	0.167275
1683.51	0.170125
1683.77	-0.815623
1684.03	0.173769
1684.29	-1.79886
1684.55	4.12899
1684.81	-5.74273
1685.07	-0.802135
1685.33	-0.798697
1685.58	1.17985
1685.84	-1.77861
1686.1	1.18963
1686.36	0.207699
1686.62	-1.76367
1686.88	1.20308
1687.14	3.18057
1687.4	0.218883
1687.66	-0.766798
1687.92	0.222706
1688.17	2.19908
1688.43	0.224997
1688.69	1.21261
1688.95	0.226492
1689.21	-1.74605
1689.47	2.20027
1689.73	0.227747
1689.99	1.21978
1690.25	-0.747515
1690.5	-0.742701
1690.76	2.2218
1691.02	1.23892
1691.28	0.257738
1691.54	-0.72537
1691.8	0.264526
1692.06	-0.720227
1692.31	7.1739
1692.57	-1.70535
1692.83	0.267285
1693.09	-0.719528
1693.35	-0.720222
1693.61	0.266469
1693.87	-0.718734
1694.13	0.267002
1694.39	2.2388
1694.64	-2.6826
1694.9	0.276736
1695.16	-1.68963
1695.42	0.284842
1695.68	-0.696001
1695.94	0.29463
1696.19	1.2841
1696.45	-0.684395
1696.71	-1.66832
1696.97	0.302363
1697.23	-0.683192
1697.49	0.301266
1697.74	-1.66718
1698	0.302438
1698.26	-1.66487
1698.52	-0.679106
1698.78	2.27523
1699.04	-0.673408
1699.3	2.2824
1699.55	1.3016
1699.81	-1.64799
1700.07	2.28855
1700.33	-1.64402
1700.59	0.325943
1700.85	1.31172
1701.1	-0.654128
1701.36	-0.653458
1701.62	-0.65295
1701.88	0.330641
1702.14	-0.65187
1702.4	-1.63323
1702.65	2.29987
1702.91	-2.6108
1703.17	-0.643596
1703.43	3.28815
1703.69	1.32639
1703.94	0.348596
1704.2	0.352936
1704.46	-1.6094
1704.72	1.34071
1704.98	1.3432
1705.24	0.363757
1705.49	2.33077
1705.75	2.3308
1706.01	1.34804
1706.27	-0.616434
1706.53	-0.61683
1706.78	1.3459
1707.04	1.34523
1707.3	-1.59891
1707.56	0.361253
1707.82	0.359738
1708.07	3.29748
1708.33	0.355611
1708.59	1.33381
1708.85	-1.60353
1709.11	-0.623012
1709.36	-3.55751
1709.62	0.36122
1709.88	2.32241
1710.14	-2.56907
1710.4	-1.58547
1710.65	-0.601834
1710.91	0.381656
1711.17	-0.593666
1711.43	2.34856
1711.68	-2.54644
1711.94	0.39235
1712.2	1.36894
1712.46	-0.591529
1712.72	0.383389
1712.97	3.31487
1713.23	1.35543
1713.49	2.33133
1713.75	-2.55292
1714.01	2.33268
1714.26	-0.595901
1714.52	-0.59374
1714.78	0.385943
1715.04	0.393363
1715.29	-0.579799
1715.55	1.37649
1715.81	0.40073
1716.07	0.401052
1716.32	-2.52925
1716.58	-0.577509
1716.84	0.396104
1717.1	2.34319
1717.35	0.387684
1717.61	-1.56387
1717.87	-1.56607
1718.13	1.35502
1718.38	1.35496
1718.64	1.35649
1718.9	-0.587701
1719.16	0.388165
1719.41	2.33712
1719.67	0.394996
1719.93	-0.57653
1720.19	-0.575666
1720.44	0.397552
1720.7	-1.55003
1720.96	-0.576491
1721.22	0.395932
1721.47	0.395291
1721.73	-0.577828
1721.99	2.33722
1722.25	3.30755
1722.5	0.391954
1722.76	1.36306
1723.02	-1.54989
1723.27	0.39386
1723.53	0.396455
1723.79	0.397676
1724.05	0.399398
1724.3	0.398986
1724.56	-1.54352
1724.82	2.33406
1725.08	-0.577847
1725.33	0.389517
1725.59	-0.579613
1725.85	1.36053
1726.11	0.394758
1726.36	-2.51132
1726.62	-2.51123
1726.88	-0.574517
1727.13	2.33525
1727.39	2.34024
1727.65	-0.565105
1727.9	0.40259
1728.16	-1.54107
1728.42	1.34197
1728.68	-2.53334
1728.93	-0.601673
1729.19	-1.55705
1729.45	0.383226
1729.7	0.385437
1729.96	0.381211
1730.22	-0.584444
1730.47	0.389585
1730.73	1.36807
1730.99	-1.528
1731.25	0.407454
1731.5	0.409468
1731.76	2.34357
1732.02	1.37825
1732.27	0.412731
1732.53	1.37876
1732.79	1.37747
1733.04	-0.556002
1733.3	-1.52415
1733.56	1.36792
1733.81	3.29445
1734.07	-1.52861
1734.33	1.36104
1734.59	0.395255
1734.84	-1.53288
1735.1	-0.570536
1735.36	2.31741
1735.61	0.392876
1735.87	1.35655
1736.13	2.3195
1736.38	-0.566841
1736.64	2.32002
1736.9	0.396182
1737.15	0.396937
1737.41	0.397334
1737.67	-1.52606
1737.92	1.35765
1738.18	-0.565228
1738.44	0.395218
1738.69	0.394008
1738.95	2.3127
1739.21	-1.53149
1739.46	-2.49406
1739.72	2.29933
1739.98	-0.580315
1740.23	1.3354
1740.49	-2.49866
1740.74	0.375297
1741	1.33252
1741.26	0.374253
1741.51	1.33219
1741.77	2.29076
1742.03	-0.579772
1742.28	0.378409
1742.54	1.33662
1742.8	1.33838
1743.05	0.383269
1743.31	-0.573627
1743.57	-1.53118
1743.82	0.382912
1744.08	-0.573535
1744.33	-1.52784
1744.59	-0.568986
1744.85	2.30319
1745.1	1.34871
1745.36	2.30626
1745.62	-1.51912
1745.87	0.392528
1746.13	3.25825
1746.38	1.34444
1746.64	-0.566984
1746.9	-0.5688
1747.15	-0.569048
1747.41	0.384809
1747.67	0.386375
1747.92	-1.52055
1748.18	-0.563419
1748.44	-1.51511
1748.69	0.397558
1748.95	-1.50797
1749.2	-0.548567
1749.46	-0.543571
1749.72	-0.538314
1749.97	0.422608
1750.23	1.38311
1750.48	1.38631
1750.74	0.434066
1751	-3.38817
1751.25	0.435242
1751.51	-1.4779
1751.76	1.3866
1752.02	0.430552
1752.28	-0.525132
1752.53	0.428695
1752.79	-0.526484
1753.04	1.38181
1753.3	-1.48072
1753.56	1.38094
1753.81	-0.527622
1754.07	0.425469
1754.32	-0.52776
1754.58	2.33241
1754.84	0.42643
1755.09	3.28554
1755.35	1.37891
1755.6	-1.48013
1755.86	1.37599
1756.12	5.18205
1756.37	0.419325
1756.63	-1.4858
1756.88	-0.535058
1757.14	1.36773
1757.39	-2.43528
1757.65	0.422482
1757.9	2.33045
1758.16	-0.521028
1758.42	-0.518696
1758.67	0.43511
1758.93	-1.46553
1759.18	1.3917
1759.44	1.39315
1759.69	3.29708
1759.95	-1.45951
1760.21	2.34667
1760.46	-0.507017
1760.72	-0.507315
1760.97	0.443081
1761.23	-0.507742
1761.48	1.39424
1761.74	0.444551
1762	0.447577
1762.25	0.451691
1762.51	1.40562
1762.76	-1.4451
1763.02	-1.44319
1763.27	-0.489697
1763.53	2.36628
1763.78	0.468054
1764.04	-0.476613
1764.29	0.48038
1764.55	0.484486
1764.81	5.24763
1765.06	0.491278
1765.32	0.494049
1765.57	1.44843
1765.83	0.498213
1766.08	0.499454
1766.34	-0.451832
1766.59	-0.450126
1766.85	0.50308
1767.1	-0.448119
1767.36	1.45485
1767.61	0.503694
1767.87	-0.447841
1768.12	2.40835
1768.38	0.504518
1768.64	2.40019
1768.89	1.44408
1769.15	0.488029
1769.4	1.43802
1769.66	-0.458282
1769.91	1.44856
1770.17	0.501543
1770.42	0.503869
1770.68	-0.442883
1770.93	0.514842
1771.19	0.520776
1771.44	0.523004
1771.7	0.526327
1771.95	4.33569
1772.21	1.48697
1772.46	4.3454
1772.72	3.39777
1772.97	2.44986
1773.23	1.50151
1773.48	0.552804
1773.74	1.50768
1773.99	3.41444
1774.25	0.561186
1774.5	0.564971
1774.76	1.52054
1775.01	0.573897
1775.27	2.4879
1775.52	1.53953
1775.78	0.589401
1776.03	3.45126
1776.29	2.49851
1776.54	-0.361371
1776.8	2.49738
1777.05	0.59149
1777.31	2.4961
1777.56	3.44756
1777.82	2.49395
1778.07	1.54058
1778.33	3.44278
1778.58	3.44001
1778.84	1.53493
1779.09	2.48655
1779.35	2.49002
1779.6	3.44685
1779.85	2.49805
1780.11	0.597491
1780.36	2.50441
1780.62	1.5553
1780.87	2.50954
1781.13	-0.343927
1781.38	-0.340729
1781.64	0.615315
1781.89	2.52485
1782.15	-0.328364
1782.4	1.5809
1782.66	0.631397
1782.91	1.58791
1783.17	1.59164
1783.42	1.59543
1783.68	3.50657
1783.93	3.512
1784.18	0.655538
1784.44	2.56719
1784.69	4.47793
1784.95	4.47929
1785.2	0.663543
1785.46	5.43332
1785.71	3.5263
1785.97	1.6209
1786.22	-0.283707
1786.47	3.53729
1786.73	1.63415
1786.98	4.50473
1787.24	4.51508
1787.49	2.61616
1787.75	6.45428
1788	5.5101
1788.25	8.38931
1788.51	4.56502
1788.76	6.48817
1789.02	3.622
1789.27	1.71024
1789.53	4.58912
1789.78	4.59347
1790.04	3.63787
1790.29	0.763095
1790.54	3.64025
1790.8	2.67441
1791.05	2.67116
1791.31	3.62869
1791.56	4.58725
1791.82	2.67416
1792.07	5.54938
1792.32	8.42666
1792.58	0.766982
1792.83	7.476
1793.09	3.64481
1793.34	1.73227
1793.59	2.69297
1793.85	3.65393
1794.1	5.56945
1794.36	4.61131
1794.61	2.70742
1794.86	4.63863
1795.12	4.64736
1795.37	5.61225
1795.63	3.69695
1795.88	2.74141
1796.14	7.54847
1796.39	3.71162
1796.64	6.59925
1796.9	6.60441
1797.15	7.57019
1797.4	4.69034
1797.66	5.6553
1797.91	6.61996
1798.17	2.77613
1798.42	5.66207
1798.67	4.70061
1798.93	2.77715
1799.18	4.69824
1799.44	3.73504
1799.69	3.73388
1799.94	1.81165
1800.2	4.69345
1800.45	6.61467
1800.7	2.77322
1800.96	4.69537
1801.21	6.61819
1801.47	3.73902
1801.72	6.62383
1801.97	3.74525
1802.23	2.78837
1802.48	2.79278
1802.73	5.68155
1802.99	3.76418
1803.24	4.7298
1803.5	3.77062
1803.75	1.84952
1804	5.70145
1804.26	2.82021
1804.51	3.78697
1804.76	4.75524
1805.02	5.72407
1805.27	4.76702
1805.53	2.84558
1805.78	5.73997
1806.03	3.81719
1806.29	4.78442
1806.54	2.8595
1806.79	4.78882
1807.05	5.75416
1807.3	3.82807
1807.55	4.79361
1807.81	3.83156
1808.06	6.72511
1808.31	2.87154
1808.57	1.90962
1808.82	7.69564
1809.07	4.80569
1809.33	2.87975
1809.58	5.77419
1809.83	2.88362
1810.09	4.81319
1810.34	6.74173
1810.59	5.77831
1810.85	1.92321
1811.1	2.8883
1811.35	6.74582
1811.61	4.81953
1811.86	3.85815
1812.11	6.7544
1812.37	3.86569
1812.62	0.976286
1812.87	2.90829
1813.13	3.87595
1813.38	2.91531
1813.63	4.8512
1813.89	5.82263
1814.14	2.93302
1814.39	3.90454
1814.65	3.9091
1814.9	6.81165
1815.15	1.98216
1815.4	4.88364
1815.66	4.88602
1815.91	6.82122
1816.16	4.89151
1816.42	3.92566
1816.67	3.92667
1816.92	6.82148
1817.18	5.84692
1817.43	4.88009
1817.68	5.8492
1817.94	4.88864
1818.19	2.96266
1818.44	6.82913
1818.7	4.898
1818.95	4.90097
1819.2	1.03821
1819.45	2.97426
1819.71	4.91082
1819.96	6.84839
1820.21	2.98401
1820.46	5.8882
1820.72	6.85889
1820.97	6.86327
1821.22	4.9325
1821.48	6.87169
1821.73	5.90721
1821.98	5.91008
1822.24	4.94441
1822.49	5.91481
1822.74	3.98063
1822.99	4.94875
1823.25	5.91635
1823.5	4.94763
1823.75	5.91757
1824.01	6.88859
1824.26	3.98729
1824.51	6.89454
1824.76	3.99308
1825.02	3.02775
1825.27	6.90349
1825.52	4.96787
1825.77	8.84269
1826.03	1.09693
1826.28	5.94088
1826.53	4.97414
1826.78	3.03965
1827.04	4.97991
1827.29	4.01441
1827.54	4.98599
1827.8	4.98631
1828.05	6.92459
1828.3	6.92295
1828.55	12.7328
1828.81	4.98416
1829.06	6.92194
1829.31	2.07977
1829.56	4.98515
1829.82	3.0471
1830.07	6.91948
1830.32	4.98238
1830.57	6.92114
1830.83	8.86162
1831.08	5.96044
1831.33	5.96423
1831.58	4.999
1831.83	7.909
1832.09	10.8203
1832.34	5.98066
1832.59	5.98357
1832.84	4.04594
1833.1	7.9252
1833.35	5.98965
1833.6	6.96079
1833.85	5.02345
1834.11	5.98615
1834.36	2.10236
1834.61	8.87311
1834.86	4.02645
1835.11	4.0233
1835.37	4.98775
1835.62	3.0545
1835.87	5.00193
1836.12	5.07696
1836.37	4.07834
1836.63	5.03057
1836.88	4.05591
1837.13	5.01194
1837.38	5.96811
1837.64	4.98388
1837.89	4.01165
1838.14	5.95308
1838.39	5.01801
1838.64	2.12088
1838.9	6.00204
1839.15	6.00523
1839.4	4.0712
1839.65	3.1016
1839.91	5.02295
1840.16	5.98038
1840.41	5.00374
1840.66	4.99599
1840.91	4.98871
1841.16	3.05065
1841.42	4.01077
1841.67	2.07582
1841.92	5.93032
1842.17	2.07044
1842.42	3.03771
1842.68	4.00258
1842.93	4.00496
1843.18	5.93491
1843.43	4.00602
1843.68	2.07671
1843.94	5.93668
1844.19	4.9747
1844.44	4.01013
1844.69	3.04503
1844.94	5.94018
1845.19	5.94431
1845.45	4.0231
1845.7	4.03126
1845.95	5.97326
1846.2	6.94424
1846.45	5.96162
1846.7	4.00559
1846.96	4.94999
1847.21	5.91009
1847.46	6.87802
1847.71	5.92585
1847.96	7.85442
1848.21	5.92074
1848.47	4.95633
1848.72	3.03059
1848.97	3.99032
1849.22	3.02392
1849.47	2.05807
1849.72	4.93865
1849.98	4.93369
1850.23	5.89052
1850.48	3.96535
1850.73	4.92331
1850.98	4.92119
1851.23	3.9594
1851.48	4.91923
1851.74	4.91964
1851.99	4.92052
1852.24	3.96122
1852.49	5.88244
1852.74	3.96209
1852.99	1.08139
1853.24	3.96026
1853.5	4.91691
1853.75	3.95295
1854	4.90722
1854.25	6.82189
1854.5	2.02643
1854.75	4.90017
1855.01	4.8947
1855.26	4.8905
1855.51	5.84718
1855.76	3.93077
1856.01	6.80462
1856.26	5.84794
1856.51	5.8483
1856.76	4.89039
1857.02	6.80447
1857.27	4.888
1857.52	3.92913
1857.77	4.88424
1858.02	5.83824
1858.27	5.83469
1858.52	2.0048
1858.77	4.87092
1859.02	5.82324
1859.28	3.90997
1859.53	2.95532
1859.78	4.86781
1860.03	7.73933
1860.28	6.78846
1860.53	2.96599
1860.78	5.83927
1861.03	3.93032
1861.28	4.89016
1861.53	4.89111
1861.79	5.84721
1862.04	5.84445
1862.29	3.92794
1862.54	2.0121
1862.79	4.87754
1863.04	5.8301
1863.29	5.82698
1863.54	2.95794
1863.79	4.86639
1864.04	2.95388
1864.3	1.99677
1864.55	4.85843
1864.8	3.8998
1865.05	6.75782
1865.3	4.84404
1865.55	1.97724
1865.8	6.73694
1866.05	3.87132
1866.3	6.72191
1866.55	6.71438
1866.8	7.65875
1867.05	3.84762
1867.3	2.89329
1867.56	7.64579
1867.81	4.79247
1868.06	4.79244
1868.31	5.74471
1868.56	3.84488
1868.81	4.79565
1869.06	6.6966
1869.31	5.74551
1869.56	2.89364
1869.81	6.6955
1870.06	6.69528
1870.31	3.8441
1870.56	4.79489
1870.82	6.6959
1871.07	5.74445
1871.32	5.74273
1871.57	4.79018
1871.82	2.88935
1872.07	6.68735
1872.32	2.88559
1872.57	4.78217
1872.82	5.73039
1873.07	2.88253
1873.32	5.72911
1873.57	0.981599
1873.82	7.62137
1874.07	5.72001
1874.32	4.76756
1874.57	3.8155
1874.82	3.81151
1875.07	6.64991
1875.32	3.80079
1875.58	3.79257
1875.83	5.68071
1876.08	4.72999
1876.33	3.78109
1876.58	3.77789
1876.83	2.82373
1877.08	3.75675
1877.33	7.52224
1877.58	5.67015
1877.83	3.81965
1878.08	7.57721
1878.33	5.68226
1878.58	4.74047
1878.83	5.70419
1879.08	5.70783
1879.33	4.75466
1879.58	0.964224
1879.83	2.85792
1880.08	3.80574
1880.33	2.86109
1880.58	5.69875
1880.83	2.8567
1881.08	5.68842
1881.33	0.951429
1881.58	5.67081
1881.83	2.82728
1882.08	6.59436
1882.33	3.75353
1882.58	6.57641
1882.83	4.72405
1883.08	4.77498
1883.33	3.7608
1883.58	4.67809
1883.83	3.7418
1884.08	4.68816
1884.33	3.74253
1884.58	3.75044
1884.83	5.6441
1885.08	5.64719
1885.33	4.70896
1885.58	7.54899
1885.83	0.94305
1886.08	2.83329
1886.33	5.66293
1886.58	2.82549
1886.83	3.76619
1887.08	4.70627
1887.33	3.75919
1887.58	4.69835
1887.83	3.75043
1888.08	7.51401
1888.33	0.913795
1888.58	2.79321
1888.83	3.73114
1889.08	3.73017
1889.33	4.67104
1889.58	2.78906
1889.83	4.67497
1890.08	2.79654
1890.33	4.68333
1890.58	4.68439
1890.83	5.62527
1891.08	4.68324
1891.33	7.50828
1891.58	7.50738
1891.83	3.74077
1892.07	4.68142
1892.33	5.62052
1892.58	5.61655
1892.82	2.78609
1893.07	3.71825
1893.32	5.59162
1893.57	6.53548
1893.82	1.83335
1894.07	0.890237
1894.32	4.64664
1894.57	4.6467
1894.82	3.70857
1895.07	5.58969
1895.32	3.71287
1895.57	3.71537
1895.82	4.65812
1896.07	4.66185
1896.32	4.66567
1896.57	6.54977
1896.82	6.55259
1897.07	3.73264
1897.32	2.79292
1897.56	5.61493
1897.81	4.67333
1898.06	6.55224
1898.31	6.54897
1898.56	3.72449
1898.81	3.72092
1899.06	0.900067
1899.31	2.77826
1899.56	1.83687
1899.81	6.53293
1900.06	2.77576
1900.31	4.65607
1900.56	4.65863
1900.81	1.8435
1901.05	6.54631
1901.31	2.79038
1901.55	3.73416
1901.8	6.56102
1902.05	3.74187
1902.3	5.62272
1902.55	5.62165
1902.8	4.67936
1903.05	3.73759
1903.3	5.61733
1903.55	3.73622
1903.8	3.73603
1904.04	5.61636
1904.29	4.67586
1904.54	2.79507
1904.79	1.85513
1905.04	4.67545
1905.29	4.67432
1905.54	2.78796
1905.79	5.60326
1906.04	3.72288
1906.29	4.66051
1906.54	4.65938
1906.78	4.65872
1907.03	2.78217
1907.28	1.844
1907.53	0.908292
1907.78	4.66841
1908.03	3.73024
1908.28	4.67137
1908.53	5.61377
1908.77	1.85791
1909.02	6.56196
1909.27	4.68699
1909.52	3.75225
1909.77	4.69925
1910.02	5.64718
1910.27	6.59421
1910.52	2.8314
1910.77	1.89197
1911.01	4.71945
1911.26	2.83613
1911.51	1.89423
1911.76	1.8931
1912.01	6.60216
1912.26	0.951226
1912.51	1.89352
1912.76	2.83575
1913	5.66282
1913.25	2.84079
1913.5	5.67366
1913.75	1.90869
1914	3.79764
1914.25	2.85862
1914.5	4.74895
1914.74	3.80911
1914.99	4.75499
1915.24	3.81215
1915.49	1.92441
1915.74	3.81032
1915.99	4.75379
1916.24	1.92038
1916.49	3.80396
1916.73	6.63051
1916.98	1.91408
1917.23	1.91319
1917.48	2.85555
1917.73	3.79982
1917.98	4.74615
1918.23	3.80762
1918.47	5.6996
1918.72	4.76194
1918.97	2.87986
1919.22	0.0539389
1919.47	2.89228
1919.71	3.83963
1919.96	2.89486
1920.21	3.83728
1920.46	3.8411
1920.71	1.95563
1920.96	4.79605
1921.21	1.96143
1921.45	0.0725851
1921.7	1.01927
1921.95	0.0734386
1922.2	-0.87334
1922.45	3.85237
1922.69	3.85061
1922.94	4.79487
1923.19	6.68421
1923.44	3.84709
1923.69	-0.880264
1923.94	1.00749
1924.18	3.84083
1924.43	0.0620232
1924.68	2.89766
1924.93	3.84552
1925.18	2.90463
1925.42	1.96447
1925.67	2.91438
1925.92	1.97277
1926.17	4.81615
1926.42	1.03532
1926.66	10.5055
1926.91	1.04025
1927.16	2.93645
1927.41	2.93863
1927.66	1.04617
1927.9	2.94249
1928.15	0.101703
1928.4	4.84166
1928.65	0.105779
1928.9	0.10836
1929.15	2.95625
1929.39	2.01298
1929.64	0.119636
1929.89	1.07269
1930.14	2.02541
1930.39	2.9784
1930.63	3.92863
1930.88	2.02999
1931.13	1.0793
1931.38	2.02689
1931.62	0.126927
1931.87	2.02329
1932.12	2.02142
1932.37	2.01975
1932.61	3.91656
1932.86	1.06944
1933.11	-1.77442
1933.36	3.92438
1933.61	2.9842
1933.85	1.09535
1934.1	-0.794314
1934.35	1.11957
1934.6	3.98734
1934.84	2.09065
1935.09	4.00452
1935.34	3.0517
1935.59	7.80757
1935.83	3.99536
1936.08	1.13515
1936.33	-0.772452
1936.58	2.0829
1936.83	3.9844
1937.07	-1.73202
1937.32	1.12197
1937.57	1.11959
1937.82	2.06943
1938.06	3.97497
1938.31	3.98038
1938.56	0.173448
1938.81	2.08051
1939.05	-0.774586
1939.3	2.08524
1939.55	1.13457
1939.8	1.13603
1940.04	3.04612
1940.29	3.05221
1940.54	-2.66254
1940.79	2.11159
1941.03	4.01929
1941.28	1.1538
1941.53	1.14773
1941.78	1.14365
1942.02	-0.755192
1942.27	3.07364
1942.52	3.07564
1942.76	1.16455
1943.01	2.11281
1943.26	4.01469
1943.51	0.198826
1943.75	1.16069
1944	0.208735
1944.25	0.211699
1944.5	1.17001
1944.74	1.17361
1944.99	2.13273
1945.24	2.13643
1945.49	0.227693
1945.73	-0.726098
1945.98	2.14461
1946.23	2.14614
1946.47	1.1903
1946.72	0.233402
1946.97	2.14492
1947.21	1.18768
1947.46	1.18761
1947.71	2.14385
1947.96	2.14349
1948.2	1.1869
1948.45	1.18841
1948.7	-0.721696
1948.94	0.237556
1949.19	0.240632
1949.44	1.20119
1949.69	0.248338
1949.93	2.1699
1950.18	1.21801
1950.43	-1.65265
1950.67	1.22893
1950.92	1.23461
1951.17	0.279921
1951.41	-0.676541
1951.66	-0.674275
1951.91	-1.63264
1952.15	1.24972
1952.4	0.289899
1952.65	1.25344
1952.9	1.25438
1953.14	-0.670889
1953.39	2.20341
1953.64	3.15368
1953.88	1.22734
1954.13	0.262103
1954.38	-0.700294
1954.62	1.21452
1954.87	1.21494
1955.12	1.21751
1955.36	1.2222
1955.61	3.14782
1955.86	0.277957
1956.1	1.24174
1956.35	1.24556
1956.6	2.20868
1956.84	0.291123
1957.09	1.25454
1957.34	1.25704
1957.58	2.21991
1957.83	2.22136
1958.08	0.300076
1958.32	0.30016
1958.57	3.18177
1958.82	-0.664303
1959.06	2.21737
1959.31	1.25544
1959.56	0.292706
1959.8	-0.669728
1960.05	-0.671586
1960.3	4.12713
1960.54	1.24413
1960.79	0.282001
1961.04	0.280296
1961.28	0.279706
1961.53	0.280309
1961.78	2.20051
1962.02	1.24138
1962.27	-0.677649
1962.51	3.16243
1962.76	0.283313
1963.01	-0.676149
1963.25	-0.675629
1963.5	1.24553
1963.75	-0.673159
1963.99	-1.63268
1964.24	-0.672906
1964.48	5.08787
1964.73	2.20724
1964.98	3.16723
1965.22	2.20784
1965.47	1.24953
1965.72	-1.6293
1965.96	4.13802
1966.21	0.297401
1966.46	1.26051
1966.7	1.2614
1966.95	-2.5836
1967.19	1.26183
1967.44	-0.659726
1967.69	2.22465
1967.93	0.302511
1968.18	2.22451
1968.43	1.26151
1968.67	2.21965
1968.92	-2.5883
1969.16	1.25021
1969.41	-0.674422
1969.66	0.282741
1969.9	-0.67952
1970.15	-1.64072
1970.39	0.276124
1970.64	-2.60366
1970.89	1.23228
1971.13	0.271819
1971.38	3.14854
1971.62	2.19122
1971.87	3.15174
1972.12	3.15227
1972.36	1.23299
1972.61	0.27211
1972.85	-0.689457
1973.1	2.18429
1973.35	0.264503
1973.59	1.22156
1973.84	1.22058
1974.08	-0.69672
1974.33	1.2205
1974.58	-1.65452
1974.82	2.18121
1975.07	1.22452
1975.31	0.267676
1975.56	1.22831
1975.8	1.22955
1976.05	0.271012
1976.3	0.271319
1976.54	3.14892
1976.79	1.22978
1977.03	-1.64881
1977.28	1.22674
1977.53	3.14208
1977.77	-1.65399
1978.02	2.17894
1978.26	3.13596
1978.51	1.21832
1978.75	1.21851
1979	-0.698122
1979.24	0.260358
1979.49	-0.697614
1979.74	0.260736
1979.98	0.258886
1980.23	2.17284
1980.47	3.12873
1980.72	1.21141
1980.96	0.251165
1981.21	-1.66564
1981.45	0.249189
1981.7	0.248745
1981.95	1.20558
1982.19	1.20282
1982.44	3.11508
1982.68	2.15372
1982.93	1.19246
1983.17	0.233302
1983.42	-0.724229
1983.66	0.231271
1983.91	1.18624
1984.16	0.228443
1984.4	0.227158
1984.65	1.1804
1984.89	1.17676
1985.14	1.16657
1985.38	0.206542
1985.63	0.19824
1985.87	1.13345
1986.12	2.03041
1986.36	-0.730456
1986.61	1.98956
1986.85	2.9603
1987.1	-0.621933
1987.35	-2.42729
1987.59	2.64155
1987.84	1.79261
1988.08	0.151193
1988.33	1.65742
1988.57	0.229652
1988.82	1.70499
1989.06	0.681663
1989.31	1.05114
1989.55	1.01173
1989.8	0.904753
1990.04	-0.0715513
1990.29	0.314547
1990.53	1.11779
1990.78	2.97576
1991.02	-0.618829
1991.27	0.592106
1991.51	1.11223
1991.76	0.674891
1992	-0.957662
1992.25	-0.968474
1992.49	0.572161
1992.74	0.622342
1992.98	0.966811
1993.23	1.23458
1993.47	-0.0240259
1993.72	0.990536
1993.96	-0.180488
1994.21	-0.743223
1994.45	0.198019
1994.7	-0.132973
1994.94	0.232247
1995.19	-0.509588
1995.43	-1.31796
1995.68	0.821608
1995.92	-1.33119
1996.17	1.1868
1996.41	0.104376
1996.66	-1.27678
1996.9	-0.00393677
1997.15	1.10576
1997.39	-0.315845
1997.64	0.130991
1997.88	1.04128
1998.13	0.584585
1998.37	0.127003
1998.62	0.602631
1998.86	-0.330756
1999.11	0.48062
1999.35	1.39513
1999.6	-0.825629
1999.84	0.728703
2000.08	0.090229
2000.33	-0.391933
2000.57	-0.966105
2000.82	-0.232279
2001.06	-0.146935
2001.31	-0.65
2001.55	-0.00316906
2001.8	0.431976
2002.04	-0.0641766
2002.29	1.84112
2002.53	0.0173292
2002.78	-1.44001
2003.02	1.17905
2003.26	0.790633
2003.51	-1.35238
2003.76	-0.859228
2004	1.48506
2004.24	0.569638
2004.49	-0.199412
2004.73	1.1444
2004.98	0.612855
2005.22	0.742421
2005.47	1.04408
2005.71	0.563317
2005.96	0.220174
2006.2	0.344339
2006.44	0.283849
2006.69	0.40129
2006.93	0.435593
2007.18	-0.658422
2007.42	-1.08708
2007.67	-0.444483
2007.91	0.596759
2008.15	-0.806381
2008.4	-0.444663
2008.64	1.66669
2008.89	1.23503
2009.13	-0.389053
2009.38	-0.331532
2009.62	-0.923128
2009.86	-0.228477
2010.11	-0.0260592
2010.27	-1.87135
2010.52	0.0117693
2010.77	-0.930636
2011.01	-0.931164
2011.26	0.010047
2011.51	-1.87441
2011.75	3.77503
2012	-0.934536
2012.25	-0.935906
2012.5	0.943941
2012.74	0.938326
2012.99	-0.949312
2013.24	1.86761
2013.48	2.80169
2013.73	-0.0239754
2013.98	-0.0312147
2014.23	-0.975413
2014.47	-0.038434
2014.72	-0.0379839
2014.97	-0.974983
2015.21	-1.91207
2015.46	3.72242
2015.71	-0.0356445
2015.96	-0.0303354
2016.2	-0.962135
2016.45	-0.961084
2016.7	-0.0223703
2016.94	-0.964397
2017.19	-0.96755
2017.44	-0.0324163
2017.69	-0.0377731
2017.93	-1.92008
2018.18	-0.986242
2018.43	-2.86632
2018.67	-0.995975
2018.92	-1.00046
2019.17	-1.93951
2019.41	1.80527
2019.66	0.867526
2019.91	-0.0696783
2020.15	-1.00717
2020.4	-0.0713501
2020.65	-1.0073
2020.89	-0.0702715
2021.14	-0.0705566
2021.39	-1.00813
2021.64	-0.0730543
2021.88	1.79752
2022.13	-3.82278
2022.38	-1.95343
2022.62	0.850222
2022.87	-0.0883398
2023.12	0.843785
2023.36	0.840508
2023.61	-1.03256
2023.86	-1.96981
2024.1	-1.0395
2024.35	-1.04387
2024.6	-0.114391
2024.84	1.74818
2025.09	-0.122721
2025.34	-0.126466
2025.58	-1.06399
2025.83	-1.06235
2026.08	8.27314
2026.32	1.75082
2026.57	0.827531
2026.82	1.77411
2027.06	-0.0908175
2027.31	0.841816
2027.56	0.83217
2027.8	0.816478
2028.05	0.78687
2028.3	1.7593
2028.54	2.74026
2028.79	0.842851
2029.04	2.72364
2029.28	1.76237
2029.53	3.6131
2029.78	2.66371
2030.02	-0.137073
2030.27	0.786705
2030.52	-3.86722
2030.76	3.60225
2031.01	-0.132406
2031.25	2.66648
2031.5	-0.132192
2031.75	0.80466
2031.99	-1.05848
2032.24	-1.05449
2032.49	0.817762
2032.73	0.820867
2032.98	-0.111318
2033.23	0.827404
2033.47	0.827607
2033.72	1.75494
2033.97	-0.124424
2034.21	-2.00307
2034.46	-0.139048
2034.7	0.799075
2034.95	-1.06358
2035.2	-0.122517
2035.44	-1.98361
2035.69	0.827425
2035.93	-0.110331
2036.18	1.75291
2036.43	-0.115746
2036.67	-0.113528
2036.92	-1.04908
2037.17	0.819916
2037.41	-0.116722
2037.66	0.816099
2037.9	-0.120877
2038.15	-0.123247
2038.4	-0.125648
2038.64	0.806156
2038.89	1.73744
2039.13	-2.0009
2039.38	-1.07018
2039.63	-0.140513
2039.87	-1.07748
2040.12	-1.08091
2040.36	-0.151399
2040.61	-2.01935
2040.86	-1.08925
2041.1	1.70639
2041.35	-0.159359
2041.6	0.77047
2041.84	0.768586
2042.09	-1.09842
2042.33	-0.167645
2042.58	1.69528
2042.82	-2.03074
2043.07	-2.96002
2043.32	-1.09133
2043.56	-0.153984
2043.81	0.780136
2044.05	-2.01987
2044.3	1.70757
2044.55	-1.09644
2044.79	-0.176585
2045.04	-2.02295
2045.28	-2.02224
2045.53	-1.07047
2045.77	-0.115897
2046.02	-0.13112
2046.27	-1.07737
2046.51	2.64706
2046.76	-0.151545
2047	-1.0895
2047.25	-0.167624
2047.49	-0.169767
2047.74	-1.10163
2047.99	0.763137
2048.23	0.763716
2048.48	-1.09946
2048.72	-0.164647
2048.97	-0.162212
2049.21	0.774359
2049.46	-1.08795
2049.71	0.782308
2049.95	-1.08228
2050.2	-0.14677
2050.44	0.787594
2050.69	2.65455
2050.93	-0.151195
2051.18	-1.0889
2051.42	-0.155496
2051.67	-0.155477
2051.92	0.779919
2052.16	0.78022
2052.41	-2.95476
2052.65	0.783437
2052.9	0.785863
2053.14	0.789364
2053.39	-1.07517
2053.63	-0.138085
2053.88	-2.00776
2054.12	-2.94332
2054.37	-2.94398
2054.61	-1.07413
2054.86	0.794982
2055.11	1.72658
2055.35	-0.145359
2055.6	-2.01634
2055.84	0.786758
2056.09	-2.95413
2056.33	-2.95513
2056.58	-1.08612
2056.82	-1.08593
2057.07	-0.150501
2057.31	-1.08423
2057.56	0.787369
2057.8	-0.146042
2058.05	-0.143284
2058.29	0.794923
2058.54	2.66925
2058.78	-0.137121
2059.03	1.7355
2059.28	-1.0726
2059.52	0.799383
2059.77	-1.07493
2060.01	-0.141302
2060.26	-3.88616
2060.5	1.73045
2060.75	-0.140096
2060.99	-0.139294
2061.24	1.73333
2061.48	-0.139332
2061.73	0.79708
2061.97	-1.07509
2062.22	-2.01073
2062.46	-1.07287
2062.71	-1.07114
2062.95	-0.132636
2063.2	1.7429
2063.44	-0.130386
2063.69	-0.129721
2063.93	-0.129103
2064.18	-1.06544
2064.42	-1.06412
2064.67	-1.99947
2064.91	-0.120195
2065.16	-1.05556
2065.4	1.76293
2065.65	0.826504
2065.89	-0.111112
2066.14	0.827909
2066.38	-0.109939
2066.63	-0.109048
2066.87	-1.04766
2067.11	-2.92544
2067.36	0.834413
2067.61	-0.103956
2067.85	6.4762
2068.1	0.837178
2068.34	-1.04116
2068.58	-0.101689
2068.83	0.835825
2069.07	-0.108452
2069.32	0.824556
2069.56	-0.116776
2069.81	-1.99424
2070.05	0.829331
2070.3	-1.04446
2070.54	1.7833
2070.79	-0.100398
2071.03	0.835483
2071.28	-0.088088
2071.52	-1.02683
2071.77	-1.02842
2072.01	0.853546
2072.25	1.79432
2072.5	-0.0905476
2072.74	-0.0908871
2072.99	1.79079
2073.23	1.79118
2073.48	0.849629
2073.72	1.79166
2073.97	-2.91574
2074.21	-1.9723
2074.45	-0.0853548
2074.7	0.86129
2074.94	-1.96175
2075.19	-1.01296
2075.43	-0.0655394
2075.68	-0.0638027
2075.92	-1.00797
2076.17	-0.0640335
2076.41	-1.95391
2076.66	1.81827
2076.9	1.81406
2077.14	-1.96511
2077.39	-0.0805864
2077.63	2.75005
2077.88	1.80946
2078.12	0.866894
2078.37	-1.01929
2078.61	1.81303
2078.85	-0.0713549
2079.1	1.82263
2079.34	-3.84217
2079.59	-0.0622311
2079.83	-1.00551
2080.08	-1.94953
2080.32	1.82996
2080.56	1.82801
2080.81	0.881696
2081.05	0.880858
2081.3	1.82493
2081.54	1.8241
2081.78	-0.06495
2082.03	-1.0094
2082.27	-0.0642462
2082.52	-0.0645199
2082.76	3.71475
2083.01	0.878652
2083.25	-1.0122
2083.49	1.82219
2083.74	1.82184
2083.98	0.876274
2084.23	0.876044
2084.47	-1.95903
2084.71	-1.01447
2084.96	0.875068
2085.2	-0.0704384
2085.45	-1.01486
2085.69	-1.95753
2085.93	-1.00881
2086.18	1.83091
2086.42	0.88591
2086.67	-0.0589352
2086.91	-0.0572443
2087.15	0.889664
2087.4	0.889304
2087.64	-0.0573664
2087.89	-1.00393
2088.13	-1.00387
2088.37	-0.0572071
2088.62	-0.0570974
2088.86	-0.055398
2089.11	1.84007
2089.35	-0.0506382
2089.59	-0.0502253
2089.84	-1.94466
2090.08	-0.049592
2090.32	-0.0488663
2090.57	-3.83829
2090.81	0.900706
2091.06	-0.046133
2091.3	1.85307
2091.54	-2.88486
2091.79	-1.93343
2092.03	1.86554
2092.27	0.92097
2092.52	-0.0254774
2092.76	1.87692
2093	0.930171
2093.25	-0.967588
2093.49	0.935369
2093.73	1.88812
2093.98	-0.0131664
2094.22	-0.964526
2094.47	0.935738
2094.71	-0.016531
2094.95	-0.0192871
2095.2	-0.0221624
2095.44	-1.92485
2095.68	-0.976563
2095.93	0.922033
2096.17	3.77088
2096.42	-0.0301561
2096.66	1.86705
2096.9	1.86353
2097.15	0.910765
2097.39	-0.989592
2097.63	-0.0414648
2097.88	-0.992028
2098.12	1.85323
2098.36	-0.994694
2098.61	0.902607
2098.85	1.8503
2099.09	0.900122
2099.34	-0.049634
2099.58	-0.999054
2099.82	-0.0501499
2100.07	-0.0499716
2100.31	-2.89667
2100.55	-0.0464067
2100.8	-0.0444918
2101.04	0.906289
2101.28	-0.993093
2101.53	-2.89333
2101.77	-2.8941
2102.01	-0.995028
2102.26	-0.996415
2102.5	1.84975
2102.74	1.84623
2102.99	-1.00372
2103.23	1.84313
2103.47	-0.0566235
2103.72	-1.00614
2103.96	0.893123
2104.2	0.894731
2104.44	-0.0534096
2104.69	-0.0521212
2104.93	-1.00029
2105.17	1.85245
2105.42	-0.996506
2105.66	0.90523
2105.9	0.906033
2106.15	-2.89636
2106.39	-0.0444155
2106.63	-0.0437384
2106.88	0.906717
2107.12	-1.94753
2107.36	2.80215
2107.6	-1.00355
2107.85	-0.0574436
2108.09	-0.0615616
2108.33	1.83434
2108.58	-0.0662575
2108.82	-1.01564
2109.06	1.83653
2109.31	1.83854
2109.55	-1.01182
2109.79	-1.01236
2110.03	0.886982
2110.28	1.83637
2110.52	-1.01414
2110.76	0.885094
2111.01	-0.0664539
2111.25	-1.01866
2111.49	-0.0706997
2111.73	0.877575
2111.98	-0.0726204
2112.22	-1.02155
2112.46	-0.071106
2112.71	-2.91998
2112.95	0.882934
2113.19	-1.96619
2113.43	-0.0647888
2113.68	1.8345
2113.92	0.882295
2114.16	-0.0688324
2114.4	0.881628
2114.65	-0.0690994
2114.89	2.78058
2115.13	0.878057
2115.38	1.82659
2115.62	-0.0755281
2115.86	0.871021
2116.1	-1.98144
2116.35	-0.0836391
2116.59	-0.0848923
2116.83	1.81314
2117.07	-0.0859871
2117.32	0.86139
2117.56	-1.98956
2117.8	-1.04278
2118.04	-1.04667
2118.29	-0.102171
2118.53	0.842805
2118.77	0.839252
2119.01	-0.112358
2119.26	1.78011
2119.5	-2.01401
2119.74	-2.0162
2119.99	0.825255
2120.23	-0.1224
2120.47	-2.96396
2120.71	-0.120189
2120.95	-1.06584
2121.2	-1.06351
2121.44	1.78402
2121.68	-0.110918
2121.92	0.839752
2122.17	0.841237
2122.41	0.842483
2122.65	1.79272
2122.89	-0.105412
2123.14	0.843744
2123.38	-0.107326
2123.62	-0.109459
2123.86	0.836678
2124.1	0.832275
2124.35	2.72281
2124.59	1.7667
2124.83	3.65466
2125.07	-1.08768
2125.32	0.801841
2125.56	0.797204
2125.8	1.73937
2126.04	1.7356
2126.28	0.785843
2126.53	-1.10938
2126.77	1.72438
2127.01	1.72249
2127.25	-1.1153
2127.5	-0.171327
2127.74	-1.11864
2127.98	1.71581
2128.22	4.55106
2128.46	0.769384
2128.71	1.71335
2128.95	2.65667
2129.19	0.764808
2129.43	-1.12657
2129.67	-2.07282
2129.92	3.59558
2130.16	-1.13078
2130.4	1.70174
2130.64	0.754574
2130.88	0.751885
2131.13	-0.195333
2131.37	-0.197782
2131.61	1.68868
2131.85	2.6303
2132.09	-0.205107
2132.34	-0.208061
2132.58	2.62093
2132.82	-2.09785
2133.06	0.732899
2133.3	-0.210926
2133.54	2.61961
2133.79	0.73228
2134.03	0.731942
2134.27	-1.15659
2134.51	0.729846
2134.75	-1.15861
2135	-0.216256
2135.24	1.66884
2135.48	2.60892
2135.72	1.66015
2135.96	-0.230401
2136.2	1.65254
2136.45	0.709991
2136.69	-0.232989
2136.93	0.709436
2137.17	0.710383
2137.41	0.71281
2137.65	1.65361
2137.9	1.64867
2138.14	1.645
2138.38	-2.12348
2138.62	-1.17757
2138.86	0.711031
2139.1	1.64523
2139.35	1.63956
2139.59	0.694096
2139.83	-0.2508
2140.07	0.688911
2140.31	-1.19706
2140.55	0.685019
2140.8	3.50851
2141.04	1.62466
2141.28	-0.26251
2141.52	3.49946
2141.76	1.61491
2142	0.673012
2142.24	0.675241
2142.49	0.67661
2142.73	-0.254411
2142.97	4.44825
2143.21	2.52177
2143.45	-0.294264
2143.69	2.52657
2143.93	3.47192
2144.18	0.655268
2144.42	0.65723
2144.66	-0.292361
2144.9	1.5893
2145.14	1.58913
2145.38	1.58751
2145.62	3.46587
2145.87	-0.296522
2146.11	1.58172
2146.35	-2.17982
2146.59	1.57765
2146.83	3.45422
2147.07	0.632605
2147.31	2.5091
2147.55	1.56743
2147.79	2.50424
2148.04	3.44081
2148.28	-0.318098
2148.52	4.37346
2148.76	1.55315
2149	-0.3281
2149.24	4.35619
2149.48	0.600117
2149.72	0.5957
2149.97	0.592283
2150.21	2.46484
2150.45	3.40123
2150.69	3.40202
2150.93	1.52896
2151.17	1.52984
2151.41	4.34466
2151.65	2.46961
2151.89	1.53282
2152.14	3.40558
2152.38	2.46476
2152.62	3.39872
2152.86	2.45795
2153.1	-0.355957
2153.34	1.51648
2153.58	0.576189
2153.82	7.12964
2154.06	2.43939
2154.3	1.49605
2154.55	3.36076
2154.78	3.35275
2155.03	3.34675
2155.27	1.47172
2155.51	1.46729
2155.75	1.46385
2155.99	5.19845
2156.23	3.32862
2156.47	5.19577
2156.71	1.45862
2156.95	3.32749
2157.19	1.4604
2157.43	3.33149
2157.68	1.46391
2157.92	1.46377
2158.16	4.26706
2158.4	-0.407876
2158.64	7.06698
2158.88	1.45681
2159.12	2.38798
2159.36	3.31816
2159.6	0.511652
2159.84	2.37482
2160.08	3.30409
2160.32	2.36691
2160.56	5.16409
2160.8	4.2292
2161.04	5.15982
2161.29	4.22444
2161.53	6.08895
2161.77	3.28942
2162.01	2.35582
2162.25	2.35478
2162.49	6.08385
2162.73	4.21517
2162.97	3.27993
2163.21	1.41249
2163.45	5.13974
2163.69	2.33993
2163.93	4.19982
2164.17	6.05823
2164.41	6.05448
2164.65	6.05487
2164.89	4.19219
2165.14	6.05535
2165.37	5.12305
2165.61	3.25875
2165.86	2.32415
2166.1	2.32177
2166.34	1.3871
2166.58	3.24605
2166.82	4.17409
2167.06	5.10016
2167.3	3.23245
2167.54	5.08395
2167.78	5.07506
2168.02	5.07181
2168.26	4.14109
2168.5	4.14139
2168.74	4.14305
2168.98	6.9361
2169.22	7.87143
2169.46	4.15552
2169.7	4.16152
2169.94	6.02698
2170.18	5.09647
2170.42	6.02553
2170.66	5.0898
2170.9	6.01842
2171.14	3.21771
2171.38	2.27548
2171.62	5.05795
2171.86	0.406796
2172.1	2.26217
2172.34	4.11761
2172.58	5.04548
2172.82	4.11535
2173.06	5.0435
2173.3	6.90241
2173.54	5.97495
2173.78	5.97594
2174.02	5.97603
2174.26	2.25784
2174.5	5.04517
2174.74	4.11463
2174.98	6.9007
2175.22	5.96941
2175.46	5.03871
2175.7	4.10776
2175.94	6.8928
2176.18	4.10204
2176.42	5.02916
2176.66	2.24169
2176.9	3.17027
2177.14	5.95663
2177.38	6.88449
2177.62	4.09741
2177.86	4.09477
2178.1	5.94662
2178.34	3.15682
2178.58	5.941
2178.82	5.01257
2179.06	7.79757
2179.3	4.08297
2179.54	7.79615
2179.78	1.29569
2180.02	5.93683
2180.26	5.00638
2180.5	7.78957
2180.74	4.07484
2180.98	4.07291
2181.22	2.21369
2181.46	5.9235
2181.7	5.92159
2181.94	4.99042
2182.18	4.06013
2182.42	5.91304
2182.66	4.98096
2182.9	5.90327
2183.14	7.75105
2183.38	6.81901
2183.62	5.8883
2183.85	5.88484
2184.09	4.95669
2184.33	7.73636
2184.57	4.03091
2184.81	4.03141
2185.05	4.95885
2185.29	3.10646
2185.53	3.10847
2185.77	4.96514
2186.01	6.82265
2186.25	4.97217
2186.49	10.5449
2186.73	5.90981
2186.97	8.70026
2187.21	2.2028
2187.45	9.63316
2187.69	6.84371
2187.93	5.91087
2188.17	6.83468
2188.41	7.75769
2188.64	5.89592
2188.88	6.8175
2189.12	4.95524
2189.36	6.80385
2189.6	4.94642
2189.84	5.87198
2190.08	5.87156
2190.32	6.7997
2190.56	4.01888
2190.8	6.79965
2191.04	5.87284
2191.28	5.87368
2191.52	6.80202
2191.76	5.87552
2192	6.80385
2192.23	2.16669
2192.47	5.87982
2192.71	4.95432
2192.95	6.81285
2193.19	6.81666
2193.43	4.96728
2193.67	6.83365
2193.91	4.98019
2194.15	4.98256
2194.39	5.91012
2194.63	5.90717
2194.86	5.90437
2195.1	5.90053
2195.34	6.82461
2195.58	10.5332
2195.82	4.02464
2196.06	5.87472
2196.3	5.86926
2196.54	6.7926
2196.78	13.2819
2197.02	6.78463
2197.26	5.85664
2197.49	4.92878
2197.73	5.85772
2197.97	7.71739
2198.21	6.79379
2198.45	5.8707
2198.69	7.73406
2198.93	5.88131
2199.17	4.95758
2199.41	6.82211
2199.64	5.90112
2199.88	6.84124
2200.12	6.84986
2200.36	10.5831
2200.6	10.5892
2200.84	7.79844
2201.08	6.85656
2201.32	9.6263
2201.55	8.64696
2201.79	5.83407
2202.03	5.84751
2202.27	5.87996
2202.51	11.4744
2202.75	9.60671
2202.99	6.81175
2203.23	5.90189
2203.47	6.89169
2203.7	6.86708
2203.94	7.79768
2204.18	5.93436
2204.42	4.98827
2204.66	6.83331
2204.9	7.74693
2205.14	5.87512
2205.38	8.66062
2205.61	5.87134
2205.85	11.4547
2206.09	9.59402
2206.33	7.72595
2206.57	4.93743
2206.81	4.00951
2207.05	6.80202
2207.28	6.80541
2207.52	8.66983
2207.76	7.74311
2208	6.81576
2208.24	6.81858
2208.48	4.02722
2208.71	5.89068
2208.95	4.95972
2209.19	5.89028
2209.43	6.82021
2209.67	4.95758
2209.91	6.82205
2210.15	4.96095
2210.38	5.89487
2210.62	4.96522
2210.86	10.5596
2211.1	4.9695
2211.34	5.90515
2211.57	4.97575
2211.81	6.84329
2212.05	8.70955
2212.29	5.90884
2212.53	4.97334
2212.77	6.83603
2213	7.76428
2213.24	7.75993
2213.48	7.76044
2213.72	5.89874
2213.96	3.10721
2214.2	5.91245
2214.43	5.9137
2214.67	7.78158
2214.91	7.78214
2215.15	5.91502
2215.39	6.84834
2215.63	6.8476
2215.86	5.91283
2216.1	4.97784
2216.34	6.84335
2216.58	4.97462
2216.82	6.84091
2217.05	6.84089
2217.29	7.77465
2217.53	7.77371
2217.77	7.77268
2218.01	5.90542
2218.24	5.90655
2218.48	6.84239
2218.72	9.64754
2218.96	5.91384
2219.2	6.84949
2219.44	7.78582
2219.67	4.98316
2219.91	7.78561
2220.15	8.71845
2220.39	3.10961
2220.63	7.77923
2220.86	4.97056
2221.1	4.96487
2221.34	9.62885
2221.58	6.82286
2221.81	5.88605
2222.05	8.68513
2222.29	5.88536
2222.53	9.62208
2222.77	4.02169
2223	7.75981
2223.24	9.63256
2223.48	4.96599
2223.72	4.97083
2223.95	7.78045
2224.19	9.6555
2224.43	8.72426
2224.67	9.66397
2224.91	8.73295
2225.14	6.86599
2225.38	8.74256
2225.62	4.99971
2225.86	5.00287
2226.1	8.75296
2226.33	7.81971
2226.57	8.7604
2226.81	5.01279
2227.05	6.88955
2227.28	5.95227
2227.52	6.88863
2227.76	8.76159
2228	6.8839
2228.23	5.00655
2228.47	5.94225
2228.71	6.87782
2228.95	6.87699
2229.18	6.8797
2229.42	5.94633
2229.66	5.95016
2229.9	9.70598
2230.13	5.01713
2230.37	7.83614
2230.61	7.83988
2230.85	6.9049
2231.08	8.78776
2231.32	8.79116
2231.56	5.03579
2231.8	5.03857
2232.03	7.86177
2232.27	7.86487
2232.51	5.04658
2232.75	7.87107
2232.98	8.81499
2233.22	6.93628
2233.46	7.87947
2233.7	7.88104
2233.93	7.8789
2234.17	6.93515
2234.41	7.87288
2234.65	3.16368
2234.88	7.85957
2235.12	9.73406
2235.36	5.97247
2235.59	5.03201
2235.83	2.21078
2236.07	8.79446
2236.31	7.85393
2236.54	6.91361
2236.78	6.91769
2237.02	7.86219
2237.25	5.04531
2237.49	5.05219
2237.73	9.76943
2237.97	8.83249
2238.2	6.00931
2238.44	5.07136
2238.68	5.0772
2238.92	6.96433
2239.15	6.96163
2239.39	6.01476
2239.63	11.6662
2239.86	6.9456
2240.1	7.885
2240.34	3.17828
2240.57	6.9572
2240.81	6.01414
2241.05	6.01455
2241.28	2.24059
2241.52	10.7341
2241.76	9.79165
2242	4.12984
2242.23	6.96329
2242.47	6.01869
2242.71	6.01706
2242.94	6.01353
2243.18	6.00973
2243.42	5.06368
2243.66	7.89333
2243.89	7.8932
2244.13	7.89569
2244.37	5.06869
2244.6	6.96449
2244.84	6.97104
2245.08	7.92007
2245.31	4.14205
2245.55	6.03599
2245.79	6.98484
2246.02	6.98743
2246.26	4.1505
2246.5	7.93702
2246.73	6.04671
2246.97	6.99423
2247.21	4.15484
2247.44	6.99306
2247.68	6.04468
2247.92	6.04259
2248.15	2.25522
2248.39	5.09225
2248.63	4.14408
2248.86	5.08863
2249.1	5.09108
2249.34	6.03887
2249.57	9.8236
2249.81	6.98067
2250.05	6.97577
2250.28	7.91661
2250.52	5.07332
2250.76	8.85143
2250.99	3.17455
2251.23	5.06358
2251.47	5.06341
2251.7	6.01014
2251.94	6.01229
2252.18	5.06943
2252.41	6.967
2252.65	6.03051
2252.89	4.14273
2253.12	5.09445
2253.36	6.04558
2253.59	8.89179
2253.83	4.1551
2254.07	6.05288
2254.3	7.00047
2254.54	6.04942
2254.78	5.1014
2255.01	4.15239
2255.25	6.04857
2255.49	6.04849
2255.72	3.20569
2255.96	6.05375
2256.2	4.15868
2256.43	6.05852
2256.67	6.06092
2256.91	6.06319
2257.14	5.11587
2257.38	11.7638
2257.61	3.2179
2257.85	5.117
2258.09	5.11732
2258.32	4.16838
2258.56	3.22001
2258.79	4.1717
2259.03	5.12269
2259.27	3.2227
2259.5	6.07499
2259.74	4.17507
2259.98	2.27463
2260.21	2.27517
2260.45	6.08019
2260.68	6.08562
2260.92	4.18597
2261.16	7.04018
2261.39	5.13749
2261.63	5.13813
2261.86	3.2354
2262.1	7.99605
2262.34	7.04765
2262.57	6.09907
2262.81	7.0559
2263.04	3.25
2263.28	3.25498
2263.52	4.21421
2263.75	6.12793
2263.99	4.22522
2264.23	2.32034
2264.46	4.23277
2264.7	3.28051
2264.93	2.32734
2265.17	7.10297
2265.4	5.19237
2265.64	3.27951
2265.88	2.31983
2266.11	5.17939
2266.35	4.21929
2266.58	2.30574
2266.82	0.393807
2267.06	2.29881
2267.29	6.11091
2267.53	5.15192
2267.76	5.1478
2268	2.28528
2268.24	3.23836
2268.47	3.23973
2268.71	3.24236
2268.94	2.29172
2269.18	4.20409
2269.41	6.11789
2269.65	5.16874
2269.89	1.35222
2270.12	7.08741
2270.36	1.35502
2270.59	5.18085
2270.83	6.13934
2271.06	4.2285
2271.3	5.18641
2271.53	6.14553
2271.77	3.27664
2272.01	2.31937
2272.24	2.31912
2272.48	4.23255
2272.71	7.10316
2272.95	6.14641
2273.18	4.23259
2273.42	4.23259
2273.66	3.27544
2273.89	4.23237
2274.13	4.23233
2274.36	5.18958
2274.6	1.36065
2274.83	3.27526
2275.07	7.10516
2275.3	0.401548
2275.54	4.23294
2275.78	0.404962
2276.01	4.23967
2276.25	3.28434
2276.48	6.16226
2276.72	5.20701
2276.95	1.37612
2277.19	4.25893
2277.42	6.18455
2277.66	4.2716
2277.89	3.31292
2278.13	4.27363
2278.36	4.27283
2278.6	2.3503
2278.84	5.22936
2279.07	3.30451
2279.31	2.33613
2279.54	0.411411
2279.78	3.28436
2280.01	0.402319
2280.25	4.23393
2280.48	1.35421
2280.72	4.22758
2280.95	4.22428
2281.19	4.2216
2281.42	2.30549
2281.66	6.14008
2281.89	5.18318
2282.13	4.22696
2282.36	3.27095
2282.6	3.27383
2282.83	5.19707
2283.07	6.16365
2283.3	4.25079
2283.54	4.25735
2283.77	0.419013
2284.01	5.23023
2284.24	4.26963
2284.48	4.27278
2284.71	2.35122
2284.95	4.27613
2285.19	3.31321
2285.42	3.3085
2285.65	5.22475
2285.89	4.26134
2286.13	3.29976
2286.36	5.22567
2286.59	3.30847
2286.83	3.31405
2287.06	2.35249
2287.3	5.24275
2287.53	2.35656
2287.77	4.28107
2288	3.3141
2288.24	2.34742
2288.47	3.30641
2288.71	3.30013
2288.94	0.405906
2289.18	2.32394
2289.41	3.27777
2289.65	12.8885
2289.88	6.15556
2290.12	3.27057
2290.35	6.154
2290.59	3.27134
2290.82	3.2748
2291.06	1.35515
2291.29	1.3575
2291.53	-0.565963
2291.76	5.21138
2292	1.36242
2292.23	4.25429
2292.47	1.36722
2292.7	2.33232
2292.93	4.26099
2293.17	1.37058
2293.41	1.37037
2293.64	2.33194
2293.87	1.36529
2294.11	-1.52872
2294.34	4.248
2294.58	2.31791
2294.81	4.24081
2295.05	3.27422
2295.28	2.30795
2295.52	-1.54594
2295.75	4.22506
2295.99	-2.51809
2296.22	3.25255
2296.45	-0.595714
2296.69	2.29193
2296.92	4.21879
2297.16	3.25906
2297.39	0.373807
2297.63	0.377516
2297.86	2.30661
2298.09	6.16258
2298.33	6.16551
2298.56	-3.47194
2298.8	1.35097
2299.03	2.31709
2299.27	2.31759
2299.5	0.386969
2299.74	1.35057
2299.97	-3.47407
2300.21	0.384999
2300.44	1.35124
2300.67	4.24725
2300.91	1.35268
2301.14	-1.54314
2301.38	2.3171
2301.61	3.28074
2301.85	2.31293
2302.08	0.38051
2302.31	3.27515
2302.55	1.34341
2302.78	1.34144
2303.02	0.37501
2303.25	4.23451
2303.49	2.30479
2303.72	1.34106
2303.95	0.376813
2304.19	-0.588369
2304.42	3.27556
2304.66	0.379723
2304.89	2.31241
2305.12	0.379787
2305.36	2.31229
2305.59	0.380486
2305.83	0.381096
2306.06	-1.55251
2306.29	-0.586845
2306.53	2.31153
2306.76	2.30988
2307	1.34082
2307.23	-0.59491
2307.46	1.33549
2307.7	-1.56561
2307.93	1.33054
2308.17	3.26161
2308.4	1.32891
2308.64	1.33004
2308.87	-0.60152
2309.1	1.33411
2309.34	2.30479
2309.57	2.30712
2309.8	1.34016
2310.04	2.30685
2310.27	0.37047
2310.51	0.36782
2310.74	2.29752
2310.97	1.32071
2311.21	-0.622044
2311.44	0.33769
2311.68	0.332928
2311.91	1.29487
2312.14	1.29103
2312.38	2.25277
2312.61	0.321598
2312.84	1.28706
2313.08	0.325163
2313.31	2.26087
2313.55	0.332503
2313.78	1.30177
2314.01	2.2718
2314.25	2.27666
2314.48	1.31368
2314.71	2.28258
2314.95	-3.52606
2315.18	0.338039
2315.41	2.26755
2315.65	-1.60404
2315.88	0.32013
2316.12	0.31486
2316.35	3.20843
2316.58	-1.62102
2316.82	5.13783
2317.05	-1.6221
2317.28	3.2097
2317.52	0.313187
2317.75	2.23887
2317.98	0.30365
2318.22	0.300576
2318.45	1.26252
2318.69	4.15446
2318.92	3.18552
2319.15	1.25248
2319.39	0.285244
2319.62	3.17885
2319.85	2.21317
2320.09	1.2469
2320.32	5.10735
2320.55	2.21339
2320.79	2.21487
2321.02	4.14779
2321.25	0.287389
2321.49	3.18835
2321.72	4.15884
2321.95	3.19574
2322.19	1.26284
2322.42	6.09444
2322.65	4.16063
2322.89	2.22713
2323.12	4.16065
2323.35	4.16069
2323.59	6.09404
2323.82	8.99288
2324.05	8.0237
2324.29	10.9173
2324.52	9.942
2324.75	12.8304
2324.99	11.8571
2325.22	7.98827
2325.45	18.6026
2325.69	24.3863
2325.92	16.6565
2326.15	24.3673
2326.39	27.2518
2326.62	34.957
2326.85	46.5153
2327.09	59.038
2327.32	85.0502
2327.55	105.278
2327.79	154.439
2328.02	221.91
2328.25	314.449
2328.48	296.074
2328.72	234.347
2328.95	145.66
2329.18	88.8169
2329.42	59.9173
2329.65	42.5872
2329.88	31.0239
2330.11	24.2771
2330.35	18.4942
2330.58	14.6397
2330.81	7.89891
2331.05	8.86409
2331.28	4.04969
2331.51	5.01641
2331.75	1.15661
2331.98	2.11547
2332.21	3.0749
2332.45	2.10836
2332.68	2.10497
2332.91	1.13898
2333.14	0.173452
2333.38	3.05827
2333.61	1.12994
2333.84	-1.76042
2334.07	3.04485
2334.31	0.155549
2334.54	2.07619
2334.77	0.150985
2335.01	2.07215
2335.24	1.10978
2335.47	1.10954
2335.7	4.95461
2335.94	2.06651
2336.17	-0.820464
2336.4	0.139152
2336.64	3.9832
2336.87	3.01958
2337.1	0.133392
2337.33	-3.71437
2337.57	-0.832655
2337.8	2.04906
2338.03	1.0858
2338.26	-1.79938
2338.5	3.00564
2338.73	2.04355
2338.96	0.119757
2339.19	1.0792
2339.43	-1.80666
2339.66	2.03451
2339.89	-1.81286
2340.12	0.105099
2340.36	1.06112
2340.59	5.8566
2340.82	-2.79012
2341.05	2.00199
2341.29	-1.841
2341.52	-0.885488
2341.75	1.98776
2341.98	1.98398
2342.22	1.98084
2342.45	1.97853
2342.68	1.01829
2342.91	1.97571
2343.15	0.0565071
2343.38	-0.903942
2343.61	-1.86368
2343.84	-1.86421
2344.08	1.01085
2344.31	1.00911
2344.54	2.92395
2344.77	0.0453949
2345	2.91679
2345.24	0.994896
2345.47	2.90655
2345.7	-1.88659
2345.93	-2.84653
2346.17	0.0243025
2346.4	-0.935308
2346.63	0.977155
2346.86	0.0171986
2347.1	-0.941855
2347.33	1.92932
2347.56	-0.943502
2347.79	-0.943324
2348.02	-2.85898
2348.26	0.970354
2348.49	-0.94757
2348.72	1.92123
2348.95	-0.000899315
2349.19	-1.9215
2349.42	-0.0166407
2349.65	-0.0263262
2349.88	1.87201
2350.11	0.896478
2350.35	-0.087862
2350.58	2.7905
2350.81	-0.0225258
2351.04	-1.9234
2351.27	0.918123
2351.51	-0.0550508
2351.74	0.898915
2351.97	-3.8735
2352.2	-1.97285
2352.43	0.874414
2352.67	-0.0901566
2352.9	1.81707
2353.13	-1.04337
2353.36	-1.04726
2353.59	-2.001
2353.83	-2.00284
2354.06	-0.0960617
2354.29	0.858915
2354.52	0.857066
2354.75	-0.0980902
2354.99	-0.100741
2355.22	-1.05611
2355.45	-2.01157
2355.68	-1.06267
2355.91	-0.116032
2356.15	2.73079
2356.38	-0.130841
2356.61	-0.135123
2356.84	-2.04076
2357.07	0.808129
2357.3	0.804494
2357.54	0.801011
2357.77	-1.10283
2358	-0.154839
2358.23	3.64115
2358.46	-1.11219
2358.69	-1.11455
2358.93	-0.166792
2359.16	2.6795
2359.39	-2.07294
2359.62	-0.178101
2359.85	-1.13197
